Chest	Chest	Chest	Chest	Right Hip	Right Hip	Right Hip	Right Hip	Right Wrist	Right Wrist	Right Wrist	Right Wrist	Right Thigh	Right Thigh	Right Thigh	Right Thigh	Right foot	Right foot	Right foot	Right foot	Lower Back	Lower Back	Lower Back	Lower Back	Annotation	Annotation
Timestamp	Accelerometer X	Accelerometer Y	Accelerometer Z	Timestamp	Accelerometer X	Accelerometer Y	Accelerometer Z	Timestamp	Accelerometer X	Accelerometer Y	Accelerometer Z	Timestamp	Accelerometer X	Accelerometer Y	Accelerometer Z	Timestamp	Accelerometer X	Accelerometer Y	Accelerometer Z	Timestamp	Accelerometer X	Accelerometer Y	Accelerometer Z	Pulse	Level
mSecs	m/(sec^2)	m/(sec^2)	m/(sec^2)	mSecs	m/(sec^2)	m/(sec^2)	m/(sec^2)	mSecs	m/(sec^2)	m/(sec^2)	m/(sec^2)	mSecs	m/(sec^2)	m/(sec^2)	m/(sec^2)	mSecs	m/(sec^2)	m/(sec^2)	m/(sec^2)	mSecs	m/(sec^2)	m/(sec^2)	m/(sec^2)	Boolean	Boolean
1218926.758	-0.869	9.414	1.079	1219192.383	-1.154	9.571	1.089	1220154.297	6.960	9.435	0.098	1218886.719	4.498	7.231	3.665	1220077.148	4.027	3.635	-1.591	1219492.187	-0.987	9.195	4.893	0.000	0.000
1218946.289	-0.550	9.418	1.036	1219211.914	-0.962	9.612	0.865	1220173.828	5.784	9.475	1.086	1218906.250	2.721	7.979	2.825	1220096.680	2.417	4.313	-0.342	1219511.719	-0.598	8.784	4.872	0.000	0.000
1218965.820	-0.992	9.567	0.848	1219231.445	-1.000	9.283	0.646	1220193.359	2.301	9.227	0.408	1218925.781	2.760	9.314	-0.903	1220116.211	-2.635	24.842	3.901	1219531.250	-0.444	8.893	4.767	0.000	0.000
1218985.352	-0.911	9.606	0.889	1219250.977	-1.077	9.625	0.248	1220212.891	1.342	8.043	-1.579	1218945.312	7.603	10.896	-5.115	1220135.742	5.948	-6.838	-8.431	1219550.781	-0.597	8.969	4.539	0.000	0.000
1219004.883	-1.076	9.912	0.386	1219270.508	-0.500	9.908	0.898	1220232.422	3.695	8.905	-1.604	1218964.844	5.597	13.888	-1.821	1220155.273	2.988	19.791	1.965	1219570.312	-0.482	9.005	4.582	0.000	0.000
1219024.414	-1.192	10.027	0.753	1219290.039	-0.346	9.719	1.078	1220251.953	3.086	6.875	-3.542	1218984.375	-0.573	11.357	-3.434	1220174.805	8.754	7.733	4.607	1219589.844	-0.484	9.190	4.634	0.000	0.000
1219043.945	-1.351	10.102	0.919	1219309.570	-0.385	9.577	0.759	1220271.484	5.889	8.503	-5.215	1219003.906	-0.449	8.443	-2.570	1220194.336	1.322	8.009	-0.917	1219609.375	-0.330	9.151	4.596	0.000	0.000
1219063.477	-1.549	10.292	1.050	1219329.102	0.077	9.612	0.886	1220291.016	5.000	8.776	-4.678	1219023.437	-0.694	9.295	-0.173	1220213.867	3.450	9.213	1.672	1219628.906	-0.253	9.262	4.451	0.000	0.000
1219083.008	-1.432	10.332	0.771	1219348.633	-0.385	9.693	0.537	1220310.547	-1.442	7.594	-10.478	1219042.969	1.163	9.096	0.892	1220233.398	3.530	9.443	2.993	1219648.437	-0.444	9.338	4.337	0.000	0.000
1219102.539	-0.593	10.379	0.725	1219368.164	-0.308	9.920	0.287	1220330.078	5.153	6.632	-4.754	1219062.500	1.898	8.202	1.300	1220252.930	3.260	8.983	1.814	1219667.969	-0.409	9.671	4.323	0.000	0.000
1219122.070	-0.872	10.107	0.754	1219387.695	-0.615	10.370	0.010	1220349.609	2.211	6.227	-3.493	1219082.031	2.235	7.825	0.393	1220272.461	4.608	9.743	2.923	1219687.500	-0.018	9.111	4.253	0.000	0.000
1219141.602	-0.714	9.801	0.617	1219407.227	-0.654	10.043	-0.287	1220369.141	1.436	3.667	-4.618	1219101.562	2.853	9.489	0.685	1220291.992	2.558	9.263	1.415	1219707.031	-0.017	9.148	4.102	0.000	0.000
1219161.133	-0.592	9.456	0.759	1219426.758	-1.577	10.197	-0.600	1220388.672	2.849	3.799	-3.791	1219121.094	4.282	10.263	1.308	1220311.523	3.304	8.926	0.733	1219726.562	-0.014	8.926	4.009	0.000	0.000
1219180.664	-0.874	9.491	0.603	1219446.289	-2.308	10.204	-0.961	1220408.203	2.224	3.746	-3.475	1219140.625	4.059	10.387	2.046	1220331.055	3.773	9.450	2.106	1219746.094	0.295	8.812	4.007	0.000	0.000
1219200.195	-0.833	9.415	0.679	1219465.820	-2.654	9.720	-0.814	1220427.734	3.833	3.906	-1.457	1219160.156	3.901	9.878	1.670	1220350.586	3.228	8.773	0.840	1219765.625	0.222	8.553	3.872	0.000	0.000
1219219.727	-1.274	9.064	0.586	1219485.352	-2.808	10.054	-0.829	1220447.266	6.942	4.913	0.359	1219179.687	2.210	10.079	1.797	1220370.117	3.502	9.604	2.003	1219785.156	0.802	8.844	3.250	0.000	0.000
1219239.258	-1.078	8.989	0.220	1219504.883	-3.231	8.574	-0.917	1220466.797	12.849	9.114	3.150	1219199.219	0.823	9.924	1.557	1220389.648	3.338	9.207	1.788	1219804.687	0.690	8.512	3.302	0.000	0.000
1219258.789	-0.956	9.798	0.419	1219524.414	-2.154	7.685	-0.928	1220486.328	7.691	12.581	-2.004	1219218.750	1.482	9.546	2.034	1220409.180	3.164	9.129	1.131	1219824.219	0.270	8.405	3.017	0.000	0.000
1219278.320	-0.872	11.722	0.795	1219543.945	-2.038	8.166	-0.887	1220505.859	2.358	11.061	-5.081	1219238.281	1.597	9.105	1.969	1220428.711	3.087	9.354	1.069	1219843.750	0.804	8.733	3.127	0.000	0.000
1219297.852	-0.942	12.221	1.820	1219563.477	-1.846	7.102	-1.392	1220525.391	2.322	11.349	-4.329	1219257.812	1.751	9.178	2.051	1220448.242	2.893	9.093	1.094	1219863.281	-0.101	9.520	4.472	0.000	0.000
1219317.383	-1.707	10.444	1.339	1219583.008	-2.308	7.577	-1.094	1220544.922	2.868	9.699	-1.186	1219277.344	1.332	9.312	2.405	1220467.773	3.345	9.345	1.989	1219882.812	-1.833	11.241	6.712	0.000	0.000
1219336.914	-0.870	9.068	1.022	1219602.539	-2.808	7.998	0.122	1220564.453	2.013	8.705	0.146	1219296.875	2.030	9.596	3.037	1220487.305	3.285	9.156	1.324	1219902.344	-3.636	10.629	6.787	0.000	0.000
1219356.445	0.252	8.387	1.217	1219622.070	-1.577	10.588	0.239	1220583.984	2.151	9.807	1.413	1219316.406	1.646	9.183	3.089	1220506.836	3.030	9.057	1.821	1219921.875	-1.906	8.464	5.208	0.000	0.000
1219375.977	0.609	8.314	0.890	1219641.602	-1.346	15.155	3.339	1220603.516	2.328	9.891	0.761	1219335.937	1.835	9.417	2.757	1220526.367	3.079	8.954	0.929	1219941.437	-0.041	7.482	4.292	0.000	0.000
1219395.508	0.613	8.583	1.343	1219661.133	-1.269	15.102	2.298	1220623.047	2.117	10.494	-0.692	1219355.469	1.217	9.716	2.468	1220545.898	3.146	9.283	1.756	1219960.937	-0.278	8.003	4.439	0.000	0.000
1219415.039	0.291	9.311	1.143	1219680.664	-0.154	8.166	0.958	1220642.578	2.506	11.136	-1.194	1219375.000	1.177	9.645	2.348	1220565.430	3.186	9.430	1.765	1219980.469	-0.128	8.223	4.535	0.000	0.000
1219434.570	-0.186	10.190	1.351	1219700.195	-0.500	7.028	0.475	1220662.109	2.068	10.467	-1.847	1219394.531	1.791	9.694	2.159	1220584.961	2.911	9.440	1.576	1220000.000	-0.330	8.929	4.888	0.000	0.000
1219454.102	-0.185	10.421	1.483	1219719.727	-1.115	7.924	0.073	1220681.641	2.100	9.384	-0.885	1219414.062	2.212	9.555	1.996	1220604.492	3.312	9.638	2.045	1220019.531	-1.170	8.567	4.538	0.000	0.000
1219473.633	-0.146	9.729	1.408	1219739.258	-1.115	8.985	0.735	1220701.172	2.337	8.467	-1.262	1219433.594	2.215	9.769	2.278	1220624.023	3.056	9.379	1.301	1220039.062	-1.251	8.827	4.747	0.000	0.000
1219493.164	-0.028	9.615	1.241	1219758.789	0.000	9.273	1.165	1220720.703	4.511	8.737	-1.748	1219453.125	1.750	9.662	1.964	1220643.555	3.171	9.869	1.137	1220058.594	-1.567	9.201	5.190	0.000	0.000
1219512.695	0.131	9.732	1.125	1219778.320	-0.577	9.902	1.204	1220740.234	4.524	9.234	-3.213	1219472.656	1.790	9.585	2.075	1220663.086	2.723	8.669	0.685	1220078.125	-1.333	8.976	5.140	0.000	0.000
1219532.227	0.773	9.546	1.310	1219797.852	-1.385	9.378	1.492	1220759.766	3.682	8.481	-3.711	1219492.187	1.675	9.510	2.071	1220682.617	2.630	9.422	1.193	1220097.656	-1.025	8.825	5.174	0.000	0.000
1219551.758	0.618	9.468	1.787	1219817.383	-1.500	10.073	1.891	1220779.297	3.512	8.354	-2.485	1219511.719	1.522	9.467	2.222	1220702.148	2.476	9.233	1.260	1220117.187	-1.140	8.863	5.136	0.000	0.000
1219571.289	0.574	9.583	1.433	1219836.914	-0.692	9.776	1.961	1220798.828	3.221	8.634	-1.422	1219531.250	1.412	8.747	2.717	1220721.680	2.564	9.366	1.575	1220136.719	-0.871	8.527	5.503	0.000	0.000
1219590.820	0.733	9.469	1.306	1219856.445	-0.308	9.630	1.841	1220818.359	2.925	8.265	-2.095	1219550.781	1.528	9.524	2.802	1220741.211	2.715	9.634	1.397	1220156.250	-0.792	8.638	5.166	0.000	0.000
1219610.352	0.571	9.429	1.066	1219875.977	-0.692	9.967	1.630	1220837.891	3.246	9.190	-1.422	1219570.312	1.913	8.861	2.801	1220760.742	2.168	9.272	1.227	1220175.781	-1.065	8.825	5.404	0.000	0.000
1219629.883	0.731	9.507	1.068	1219895.508	-1.192	9.625	2.092	1220857.422	2.395	9.101	-1.565	1219589.844	2.175	8.663	2.097	1220780.273	2.281	8.786	1.312	1220195.312	-1.094	8.529	4.729	0.000	0.000
1219649.414	0.614	9.622	1.395	1219915.039	-0.731	9.410	1.738	1220876.953	2.023	9.240	-1.471	1219609.375	1.606	8.410	2.928	1220799.805	2.249	9.264	1.380	1220214.844	-1.176	8.901	4.869	0.000	0.000
1219668.945	1.136	9.473	1.582	1219934.570	-1.192	9.185	1.865	1220896.484	1.991	8.944	-1.529	1219628.906	1.034	9.354	3.369	1220819.336	2.355	9.017	1.133	1220234.375	-1.603	8.942	5.209	0.000	0.000
1219688.477	1.176	9.589	1.588	1219954.102	-1.577	9.636	1.547	1220916.016	1.951	8.946	-1.797	1219648.437	0.837	9.068	2.967	1220838.867	1.883	8.998	0.790	1220253.906	-1.182	8.827	5.479	0.000	0.000
1219708.008	1.378	9.860	1.759	1219973.633	-1.731	9.664	1.969	1220935.547	2.637	9.558	-2.384	1219667.969	1.340	8.881	3.187	1220858.398	2.025	8.867	0.435	1220273.437	-1.519	8.719	4.734	0.000	0.000
1219727.539	1.099	9.857	1.922	1219993.164	-1.231	9.445	1.846	1220955.078	2.691	8.635	-2.526	1219687.500	1.338	8.773	3.065	1220877.930	2.043	9.175	0.953	1220292.969	-1.296	8.754	5.471	0.000	0.000
1219747.070	1.177	9.666	1.672	1220012.695	-0.962	9.439	2.121	1220974.609	2.946	8.825	-2.557	1219707.031	1.915	8.779	3.065	1220897.461	2.361	9.233	1.261	1220312.500	-1.447	8.237	5.701	0.000	0.000
1219766.602	0.625	9.814	2.484	1220032.227	-1.115	9.877	2.422	1220994.141	3.090	9.159	-2.267	1219726.562	1.108	9.103	3.123	1220916.992	2.200	9.245	1.033	1220332.031	-1.947	8.316	5.582	0.000	0.000
1219786.133	0.784	9.854	2.405	1220051.758	-1.154	9.736	2.102	1221013.672	3.391	8.761	-2.608	1219746.094	1.724	9.146	3.126	1220936.523	2.409	9.905	2.647	1220351.562	-2.378	8.653	6.020	0.000	0.000
1219805.664	0.824	9.739	2.359	1220071.289	-0.923	9.837	2.576	1221033.203	3.249	8.679	-2.150	1219765.625	3.029	9.166	2.896	1220956.055	2.967	9.136	0.980	1220371.094	-2.298	8.542	5.898	0.000	0.000
1219825.195	0.780	9.854	2.005	1220090.820	-0.577	10.388	2.820	1221052.734	3.661	8.829	-1.455	1219785.156	2.255	9.358	2.408	1220975.586	2.576	8.695	0.919	1220390.625	-2.027	8.317	5.888	0.000	0.000
1219844.727	0.981	9.933	2.087	1220110.352	-0.692	10.058	2.675	1221072.266	3.614	8.873	-2.336	1219804.687	1.750	9.107	1.969	1220995.117	1.786	8.079	-0.841	1220410.156	-2.023	8.242	5.575	0.000	0.000
1219864.258	1.063	10.011	2.290	1220129.883	-0.192	10.235	3.046	1221091.797	3.538	8.873	-2.488	1219824.219	0.601	9.414	2.449	1221014.648	4.093	10.985	3.272	1220429.687	-2.177	8.281	5.575	0.000	0.000
1219883.789	1.025	10.164	2.538	1220149.414	-0.462	9.836	2.662	1221111.328	3.611	8.985	-2.366	1219843.750	3.405	9.530	1.995	1221034.180	2.852	9.173	0.983	1220449.219	-2.174	8.207	5.300	0.000	0.000
1219903.320	0.743	9.584	2.272	1220168.945	-0.462	9.803	2.467	1221130.859	3.427	9.089	-2.086	1219863.281	2.795	9.469	2.568	1221053.711	3.082	9.901	1.986	1220468.750	-1.986	8.168	5.801	0.000	0.000
1219922.852	0.824	9.201	2.412	1220188.477	-0.692	10.128	2.873	1221150.391	3.327	8.605	-1.964	1219882.812	1.753	9.432	2.220	1221073.242	3.216	9.368	1.530	1220488.281	-2.058	8.058	5.484	0.000	0.000
1219942.383	0.906	8.932	2.558	1220208.008	-0.923	9.320	2.535	1221169.922	3.549	8.827	-1.530	1219902.344	1.833	9.646	2.540	1221092.773	3.055	9.193	1.329	1220507.812	-2.171	7.911	5.318	0.000	0.000
1219961.914	1.102	9.588	2.228	1220227.539	-0.654	10.051	3.022	1221189.453	3.105	8.527	-2.081	1219921.875	1.328	9.248	2.055	1221112.305	3.065	9.327	1.606	1220527.344	-1.666	7.609	5.192	0.000	0.000
1219981.445	1.343	9.860	2.320	1220247.070	-0.538	9.767	2.386	1221208.984	3.218	8.564	-1.811	1219941.406	1.947	8.984	2.424	1221131.836	2.973	9.127	1.172	1220546.875	-1.785	7.759	5.354	0.000	0.000
1220000.977	1.501	9.361	2.093	1220266.602	-0.615	8.880	2.313	1221228.516	2.909	8.970	-2.276	1219960.937	2.259	8.864	2.801	1221151.367	2.572	8.928	0.702	1220566.406	-1.593	7.794	5.321	0.000	0.000
1220020.508	0.900	9.394	2.021	1220286.133	-1.231	8.922	2.035	1221248.047	2.393	10.010	-3.616	1219980.469	1.225	8.915	3.227	1221170.898	2.206	9.075	-0.016	1220585.937	-1.442	7.903	5.524	0.000	0.000
1220040.039	1.064	9.395	2.419	1220305.664	-1.654	9.249	2.361	1221267.578	4.282	8.885	-2.156	1220000.000	0.721	9.478	2.838	1221190.430	2.544	9.400	0.885	1220605.469	-1.631	7.609	5.500	0.000	0.000
1220059.570	1.621	9.439	2.096	1220325.195	-1.462	9.066	2.273	1221287.109	4.086	9.618	-1.793	1220019.531	1.749	8.668	1.789	1221209.961	2.067	9.050	0.484	1220625.000	-1.866	7.945	5.557	0.000	0.000
1220079.102	1.865	9.365	2.490	1220344.727	-1.462	8.733	2.246	1221306.641	4.250	8.843	-1.774	1220039.062	2.019	8.592	1.939	1221229.492	3.272	8.962	2.236	1220644.531	-1.483	7.978	5.683	0.000	0.000
1220098.633	1.181	9.781	2.117	1220364.258	-1.577	8.659	2.238	1221326.172	5.045	8.914	0.138	1220058.594	1.984	10.878	2.268	1221249.023	4.219	9.826	2.740	1220664.062	-1.371	7.977	6.069	0.000	0.000
1220118.164	1.182	9.820	2.159	1220383.789	-1.615	8.959	2.069	1221345.703	5.253	8.388	1.367	1220078.125	1.832	9.797	2.434	1221268.555	3.547	8.528	1.284	1220683.594	-1.376	8.569	5.995	0.000	0.000
1220137.695	1.060	9.741	1.996	1220403.320	-1.385	9.394	2.532	1221365.234	4.838	7.479	2.504	1220097.656	0.753	9.424	2.181	1221288.086	3.403	9.113	1.436	1220703.125	-1.223	8.494	6.070	0.000	0.000
1220157.227	0.737	9.969	1.731	1220422.852	-1.269	9.695	2.289	1221384.766	4.225	6.761	2.735	1220117.187	1.640	9.163	2.511	1221307.617	4.014	9.084	1.274	1220722.656	-1.258	8.531	5.726	0.000	0.000
1220176.758	0.821	10.047	2.054	1220442.383	-1.231	9.774	2.065	1221404.297	6.745	7.245	3.757	1220136.719	2.562	9.399	2.372	1221327.148	3.486	9.217	1.595	1220742.187	-1.252	8.309	5.326	0.000	0.000
1220196.289	0.934	9.932	1.447	1220461.914	-1.231	9.729	2.446	1221423.828	8.763	9.046	1.804	1220156.250	2.065	9.162	2.704	1221346.680	3.938	9.308	1.250	1220761.719	-1.604	8.794	5.468	0.000	0.000
1220215.820	0.895	10.009	1.491	1220481.445	-1.346	9.516	1.965	1221443.359	7.441	8.682	-1.464	1220175.781	2.112	9.658	3.464	1221366.211	3.535	9.349	1.910	1220781.250	-1.643	8.868	5.473	0.000	0.000
1220235.352	0.576	9.737	1.561	1220500.977	-1.846	9.853	1.790	1221462.891	6.034	7.638	-3.548	1220195.312	1.995	8.919	3.381	1221385.742	3.247	8.816	1.458	1220800.781	-1.450	8.755	5.468	0.000	0.000
1220254.883	0.774	9.585	1.351	1220520.508	-1.577	9.956	2.188	1221482.422	5.384	6.701	-3.754	1220214.844	2.025	8.870	2.532	1221405.273	3.735	9.262	2.172	1220820.312	-1.372	8.680	5.426	0.000	0.000
1220274.414	0.494	9.736	1.402	1220540.039	-1.154	9.735	2.140	1221501.953	5.364	5.921	-3.616	1220234.375	2.100	9.027	2.272	1221424.805	3.437	8.933	1.348	1220839.844	-1.402	8.310	5.015	0.000	0.000
1220293.945	0.413	9.273	1.340	1220559.570	-1.423	10.322	2.413	1221521.484	5.405	5.773	-3.550	1220253.906	1.638	9.393	2.256	1221444.336	3.578	8.728	0.988	1220859.375	-1.517	8.386	4.903	0.000	0.000
1220313.477	0.370	9.465	1.030	1220579.102	-1.346	9.692	2.441	1221541.016	4.156	5.593	-2.884	1220273.437	1.178	9.494	2.454	1221463.867	3.697	9.175	0.937	1220878.906	-1.363	8.347	4.826	0.000	0.000
1220333.008	0.410	9.581	0.955	1220598.633	-1.115	9.404	2.038	1221560.547	2.464	5.004	-2.891	1220292.969	2.140	8.800	2.451	1221483.398	3.377	9.092	1.858	1220898.437	-1.479	8.422	4.829	0.000	0.000
1220352.539	0.569	9.352	0.902	1220618.164	-1.192	9.253	2.178	1221580.078	2.239	5.438	-2.280	1220312.500	2.409	9.135	2.471	1221502.930	3.346	8.957	0.850	1220917.969	-1.555	8.608	4.571	0.000	0.000
1220372.070	0.688	9.699	0.838	1220637.695	-1.231	9.328	2.106	1221599.609	2.022	6.045	-0.502	1220332.031	2.138	9.250	2.247	1221522.461	3.477	9.119	1.320	1220937.500	-1.549	8.460	4.177	0.000	0.000
1220391.602	0.536	10.698	1.570	1220657.227	-1.269	9.485	1.657	1221619.141	1.141	6.384	0.924	1220351.562	2.982	9.229	2.015	1221541.992	3.638	9.069	1.585	1220957.031	-1.244	8.494	4.377	0.000	0.000
1220411.133	0.809	10.239	0.864	1220676.758	-1.231	9.029	2.236	1221638.672	0.668	6.620	2.296	1220371.094	2.556	9.231	1.785	1221561.523	3.596	8.962	1.502	1220976.562	-1.525	9.163	4.919	0.000	0.000
1220430.664	0.731	9.700	1.078	1220696.289	-1.269	8.445	1.804	1221658.203	1.042	7.205	3.830	1220390.625	2.668	9.356	1.369	1221581.055	3.715	9.182	1.552	1220996.094	-2.266	9.430	5.653	0.000	0.000
1220450.195	0.809	9.470	0.905	1220715.820	-0.500	9.413	1.589	1221677.734	2.150	7.738	4.576	1220410.156	3.318	9.743	1.046	1221600.586	3.883	9.035	0.773	1221015.625	-1.951	8.908	5.469	0.000	0.000
1220469.727	0.692	9.199	1.213	1220735.352	-0.846	10.880	2.315	1221697.266	2.877	8.819	5.291	1220429.687	3.159	9.609	0.500	1221620.117	3.513	9.236	1.211	1221035.156	-1.481	8.719	4.773	0.000	0.000
1220489.258	0.809	8.700	0.907	1220754.883	-1.615	10.585	2.238	1221716.797	2.530	9.297	4.946	1220449.219	3.419	9.193	-0.371	1221639.648	3.790	9.149	1.473	1221054.687	-1.445	8.644	5.076	0.000	0.000
1220508.789	0.727	8.815	0.673	1220774.414	-0.808	9.553	1.979	1221736.328	3.194	9.241	4.506	1220468.750	4.067	9.997	-1.016	1221659.180	3.078	9.257	0.794	1221074.219	-1.258	8.716	5.508	0.000	0.000
1220528.320	0.887	9.009	0.682	1220793.945	-1.538	9.558	1.734	1221755.859	3.416	8.991	4.061	1220488.281	4.861	10.081	-2.318	1221678.711	3.265	9.191	0.634	1221093.750	-1.175	8.493	5.148	0.000	0.000
1220547.852	0.884	9.317	0.417	1220813.477	-1.885	9.409	1.754	1221775.391	2.885	9.174	3.161	1220507.812	6.686	8.201	-4.469	1221698.242	3.251	8.912	0.271	1221113.281	-1.364	8.236	5.126	0.000	0.000
1220567.383	0.522	9.428	0.226	1220833.008	-1.462	9.445	1.842	1221794.922	2.644	10.060	3.036	1220527.344	7.907	1.206	-5.466	1221717.773	3.868	8.958	1.576	1221132.812	-1.555	8.423	4.789	0.000	0.000
1220586.914	0.597	10.314	-0.250	1220852.539	-1.385	9.891	1.725	1221814.453	3.148	10.410	2.320	1220546.875	4.717	4.388	-5.198	1221737.305	2.502	9.207	-0.434	1221152.344	-1.407	8.940	4.790	0.000	0.000
1220606.445	0.125	10.732	0.455	1220872.070	-1.269	9.560	1.624	1221833.984	3.053	9.267	1.588	1220566.406	0.510	4.534	-2.805	1221756.836	5.120	9.787	2.036	1221171.875	-1.715	9.202	4.648	0.000	0.000
1220625.977	-0.000	10.423	-0.039	1220891.602	-0.923	9.111	1.864	1221853.516	2.815	8.116	1.435	1220585.937	0.918	3.211	-0.538	1221776.367	3.963	9.632	0.692	1221191.406	-1.374	9.421	4.901	0.000	0.000
1220645.508	0.238	9.925	-0.186	1220911.133	-0.538	9.300	1.656	1221873.047	2.236	7.728	1.996	1220605.469	0.939	5.220	1.621	1221795.898	3.346	10.314	0.393	1221210.937	-1.605	9.572	4.792	0.000	0.000
1220665.039	0.444	9.620	0.357	1220930.664	-0.769	9.785	1.498	1221892.578	1.095	7.118	1.476	1220625.000	-0.751	6.085	1.865	1221815.430	6.107	10.714	1.274	1221230.469	-1.600	9.127	4.684	0.000	0.000
1220684.570	0.482	9.505	0.150	1220950.195	-0.115	9.785	1.511	1221912.109	1.321	7.082	1.815	1220644.531	0.339	9.025	-0.728	1221834.961	6.269	12.631	2.195	1221250.000	-1.910	9.315	4.806	0.000	0.000
1220704.102	0.401	9.389	0.145	1220969.727	-0.808	9.712	1.453	1221931.641	2.120	6.605	2.958	1220664.062	4.200	8.987	-3.115	1221854.492	6.524	15.463	3.324	1221269.531	-1.869	9.315	4.499	0.000	0.000
1220723.633	0.643	9.083	0.288	1220989.258	-0.731	9.490	1.437	1221951.172	2.350	6.674	3.920	1220683.594	13.569	14.015	-4.621	1221874.023	13.162	17.212	0.940	1221289.062	-1.941	9.093	4.213	0.000	0.000
1220743.164	0.924	9.009	0.441	1221008.789	-1.385	9.415	1.456	1221970.703	2.028	7.965	3.902	1220703.125	18.355	22.531	-2.956	1221893.555	17.949	19.123	3.468	1221308.594	-2.240	8.615	3.827	0.000	0.000
1220762.695	1.044	8.434	0.411	1221028.320	-1.731	9.560	1.615	1221990.234	2.631	12.541	6.671	1220722.656	8.004	20.142	0.401	1221913.086	17.172	14.305	3.533	1221328.125	-2.388	8.246	3.645	0.000	0.000
1220782.227	0.845	8.508	0.457	1221047.852	-2.077	9.304	1.472	1222009.766	2.587	14.726	6.671	1220742.187	2.709	18.860	5.555	1221932.617	8.225	3.485	-0.065	1221347.656	-2.154	7.947	3.590	0.000	0.000
1220801.758	0.647	8.468	0.657	1221067.383	-2.231	9.413	1.593	1222029.297	3.668	14.559	6.984	1220761.719	-0.538	14.800	7.734	1221952.148	0.516	-4.229	-0.605	1221367.187	-2.422	7.950	3.470	0.000	0.000
1220821.289	0.487	7.774	0.744	1221086.914	-2.385	9.377	1.510	1222048.828	4.886	12.663	6.481	1220781.250	-2.302	12.135	8.305	1221971.680	14.583	-9.153	4.536	1221386.719	-2.689	7.434	3.736	0.000	0.000
1220840.820	0.093	7.232	1.281	1221106.445	-2.346	9.527	1.408	1222068.359	4.811	12.189	5.488	1220800.781	-0.608	11.040	4.624	1221991.211	13.239	2.738	4.493	1221406.250	-2.070	6.947	3.945	0.000	0.000
1220860.352	0.128	6.117	0.785	1221125.977	-1.615	9.985	0.728	1222087.891	5.699	13.515	4.371	1220820.312	0.468	8.351	4.501	1222010.742	8.069	-5.825	1.685	1221425.781	-2.103	6.354	3.980	0.000	0.000
1220879.883	-0.268	5.536	1.239	1221145.508	-1.385	10.128	1.013	1222107.422	6.888	12.446	2.541	1220839.844	0.081	8.724	4.293	1222030.273	2.357	-8.240	1.828	1221445.312	-1.979	5.723	3.669	0.000	0.000
1220899.414	-0.236	4.651	0.355	1221165.039	-1.269	11.073	0.053	1222126.953	7.527	11.214	1.096	1220859.375	-0.734	7.516	3.528	1222049.805	4.439	2.009	4.999	1221464.844	-1.920	4.612	2.784	0.000	0.000
1220918.945	-0.834	4.646	0.601	1221184.570	-0.808	9.658	0.410	1222146.484	6.900	9.165	0.965	1220878.906	-1.545	7.186	3.162	1222069.336	5.724	5.447	4.385	1221484.375	-0.559	4.339	1.562	0.000	0.000
1220938.477	-0.307	5.189	1.303	1221204.102	-0.308	6.951	0.588	1222166.016	6.085	7.480	1.248	1220898.437	-2.428	6.061	3.325	1222088.867	3.190	5.883	3.090	1221503.906	0.292	4.256	1.111	0.000	0.000
1220958.008	0.574	5.852	1.367	1221223.633	-0.038	3.561	1.592	1222185.547	5.853	7.703	0.691	1220917.969	-3.122	5.022	3.148	1222108.398	3.635	7.616	3.228	1221523.437	-0.028	4.482	2.121	0.000	0.000
1220977.539	0.891	7.240	1.073	1221243.164	-0.808	1.145	0.152	1222205.078	4.896	7.315	0.530	1220937.500	-3.143	4.745	4.977	1222127.930	-0.052	8.376	0.618	1221542.969	-0.658	4.933	3.140	0.000	0.000
1220997.070	-0.863	12.184	1.738	1221262.695	-1.385	2.533	-0.710	1222224.609	3.908	6.594	0.306	1220957.031	-1.658	3.585	3.407	1222147.461	-4.432	12.995	3.055	1221562.500	-2.623	5.841	2.587	0.000	0.000
1221016.602	0.059	13.308	1.865	1221282.227	-2.000	4.312	-0.772	1222244.141	3.055	6.578	0.169	1220976.562	1.279	2.983	0.987	1222166.992	-5.640	22.053	3.380	1221582.031	-2.441	7.617	1.831	0.000	0.000
1221036.133	-2.035	14.749	4.478	1221301.758	-3.154	5.618	-1.267	1222263.672	1.765	5.965	-0.425	1220996.094	4.522	3.799	-1.657	1222186.523	-9.427	20.303	2.082	1221601.562	5.646	11.240	8.784	0.000	0.000
1221055.664	-2.503	14.398	5.745	1221321.289	-3.538	7.352	0.940	1222283.203	1.640	4.779	-0.544	1221015.625	8.077	6.602	-3.796	1222206.055	-17.936	18.000	-0.010	1221621.094	0.368	13.811	10.936	0.000	0.000
1221075.195	-0.581	13.956	1.944	1221340.820	-1.269	5.596	3.538	1222302.734	3.118	3.613	0.498	1221035.156	12.251	9.439	-5.626	1222225.586	-19.787	17.123	-2.467	1221640.625	1.282	12.432	9.319	0.000	0.000
1221094.727	-1.298	17.679	2.177	1221360.352	-0.385	9.786	3.314	1222322.266	3.509	3.238	1.772	1221054.687	13.238	10.604	-10.787	1222245.117	-30.694	7.167	-6.302	1221660.156	-1.087	10.863	5.508	0.000	0.000
1221114.258	-0.870	18.568	5.017	1221379.883	-4.692	15.127	2.924	1222341.797	3.404	3.301	2.586	1221074.219	5.150	5.632	-11.931	1222264.648	-24.329	11.359	3.194	1221679.687	-1.361	12.940	3.917	0.000	0.000
1221133.789	0.216	14.964	1.586	1221399.414	0.577	16.682	1.077	1222361.328	1.849	3.743	3.456	1221093.750	2.564	4.556	-9.034	1222284.180	-6.134	9.433	3.935	1221699.219	4.075	18.219	8.857	0.000	0.000
1221153.320	0.656	13.237	1.615	1221418.945	1.962	15.988	-1.259	1222380.859	-2.686	5.776	2.227	1221113.281	9.866	6.796	-13.361	1222303.711	-77.764	47.846	6.033	1221718.750	1.263	16.024	7.647	0.000	0.000
1221172.852	-0.309	11.497	1.098	1221438.477	-1.077	14.157	-2.312	1222400.391	-3.170	5.623	1.688	1221132.812	-4.073	14.158	11.888	1222323.242	69.894	-14.387	2.553	1221738.281	-2.036	13.465	5.556	0.000	0.000
1221192.383	-0.959	10.183	0.079	1221458.008	-4.615	15.096	-2.962	1222419.922	-3.231	9.749	3.824	1221152.344	-12.603	23.554	-10.318	1222342.773	-2.547	29.187	25.892	1221757.812	-1.655	11.980	3.536	0.000	0.000
1221211.914	-1.117	9.220	0.312	1221477.539	-9.385	20.218	0.199	1222439.453	-2.446	19.707	2.236	1221171.875	-0.386	18.589	3.692	1222362.305	-0.298	0.717	-16.569	1221777.344	-0.371	11.041	2.958	0.000	0.000
1221231.445	-1.004	7.875	-0.356	1221497.070	-2.615	17.002	-0.077	1222458.984	-2.326	34.878	7.526	1221191.406	-4.079	11.401	7.492	1222381.836	3.164	20.605	-3.949	1221796.875	-0.787	9.897	3.408	0.000	0.000
1221250.977	-0.517	6.533	0.252	1221516.602	2.192	11.214	-1.444	1222478.516	-1.603	26.377	7.263	1221210.937	13.610	17.488	-4.335	1222401.367	11.223	10.169	4.036	1221816.406	-0.432	9.004	3.391	0.000	0.000
1221270.508	0.174	4.963	1.406	1221536.133	1.462	8.006	-2.176	1222498.047	-1.675	18.784	7.118	1221230.469	14.245	23.100	1.424	1222420.898	3.968	11.771	0.128	1221835.937	0.387	7.700	3.585	0.000	0.000
1221290.039	-0.024	3.192	1.560	1221555.664	-0.269	6.621	-1.437	1222517.578	-1.861	20.306	10.074	1221250.000	-2.675	7.398	5.598	1222440.430	2.926	8.613	1.064	1221855.469	0.860	6.251	3.916	0.000	0.000
1221309.570	-0.024	2.577	1.569	1221575.195	-1.346	7.128	-0.841	1222537.109	-2.833	20.332	9.249	1221269.531	0.188	9.339	7.291	1222459.961	2.578	9.380	2.037	1221875.000	0.958	4.250	3.817	0.000	0.000
1221329.102	-0.255	2.305	2.478	1221594.727	-1.769	5.721	-0.847	1222556.641	-2.464	18.235	8.595	1221289.062	2.332	11.168	6.285	1222479.492	2.851	9.749	2.056	1221894.531	1.242	3.025	3.583	0.000	0.000
1221348.633	0.101	4.309	2.094	1221614.258	-1.885	3.983	-1.027	1222576.172	0.210	13.996	8.245	1221308.594	-1.724	11.625	4.505	1222499.023	3.048	8.979	1.162	1221914.062	0.919	2.806	1.446	0.000	0.000
1221368.164	-0.226	5.536	1.439	1221633.789	-2.885	4.627	-1.726	1222595.703	2.502	9.833	6.907	1221328.125	-1.602	10.241	1.307	1222518.555	2.288	9.641	1.248	1221933.594	0.857	3.103	-0.343	0.000	0.000
1221387.695	-1.021	5.913	1.866	1221653.320	-3.808	4.395	-1.225	1222615.234	3.541	7.382	5.946	1221347.656	1.340	8.846	-0.585	1222538.086	2.331	10.019	2.578	1221953.125	1.271	3.284	0.409	0.000	0.000
1221407.227	-1.944	6.750	1.597	1221672.852	-3.462	2.067	-1.519	1222634.766	4.852	6.413	5.467	1221367.187	5.676	7.254	-1.642	1222557.617	1.749	9.162	2.686	1221972.656	-0.420	4.189	3.169	0.000	0.000
1221426.758	-2.437	7.668	0.288	1221692.383	-1.423	0.127	-0.788	1222654.297	4.422	5.337	4.747	1221386.719	6.289	6.083	-1.904	1222577.148	1.513	8.907	2.596	1221992.187	-1.490	5.607	4.901	0.000	0.000
1221446.289	-2.139	12.363	2.120	1221711.914	-0.769	4.532	1.155	1222673.828	4.058	4.597	3.933	1221406.250	5.975	5.357	-2.486	1222596.680	1.454	8.415	2.067	1222011.719	-3.846	8.001	3.560	0.000	0.000
1221465.820	0.061	14.847	2.062	1221731.445	-0.192	8.621	2.301	1222693.359	4.092	4.456	3.307	1221425.781	6.772	4.211	-3.555	1222616.211	0.687	7.722	1.110	1222031.250	-1.606	7.757	2.819	0.000	0.000
1221485.352	2.252	16.715	1.173	1221750.977	-0.077	9.957	3.987	1222712.891	3.789	4.747	3.218	1221445.312	7.367	3.720	-1.777	1222635.742	3.106	8.080	2.108	1222050.781	-6.919	11.365	7.426	0.000	0.000
1221504.883	1.490	19.630	5.047	1221770.508	1.269	11.726	-2.960	1222732.422	2.160	4.424	2.651	1221464.844	7.474	7.190	-2.607	1222655.273	4.348	13.463	-1.851	1222070.312	-1.539	12.201	7.092	0.000	0.000
1221524.414	0.724	16.046	0.355	1221790.070	0.692	10.834	10.150	1222751.953	0.979	3.852	1.942	1221484.375	9.200	11.484	-6.888	1222674.805	3.193	6.913	0.267	1222089.844	-6.296	17.063	12.492	0.000	0.000
1221543.945	1.045	18.049	0.532	1221809.570	3.308	15.513	-7.154	1222771.484	0.054	3.797	1.880	1221503.906	5.831	8.778	-9.166	1222694.336	4.799	10.724	2.557	1222109.375	-3.198	15.736	7.884	0.000	0.000
1221563.477	-1.027	19.374	5.299	1221829.102	-1.885	14.793	1.107	1222791.016	-1.063	3.890	1.486	1221523.437	3.724	2.915	-4.556	1222713.867	4.065	9.289	1.632	1222128.906	-0.024	12.371	5.442	0.000	0.000
1221583.008	-1.289	13.833	-0.855	1221848.633	-6.462	20.570	8.555	1222810.547	-2.242	3.789	1.849	1221542.969	2.844	2.327	3.640	1222733.398	3.248	10.681	3.416	1222148.437	-4.367	20.821	8.139	0.000	0.000
1221602.539	-1.681	12.137	-0.096	1221868.164	-2.885	14.757	1.046	1222830.078	-2.246	3.792	1.541	1221562.500	2.129	0.382	5.254	1222752.930	2.395	9.477	2.314	1222167.969	-3.623	16.073	7.783	0.000	0.000
1221622.070	-1.440	10.947	0.042	1221887.695	3.308	11.074	-0.009	1222849.609	-1.902	3.316	1.616	1221582.031	1.205	2.525	5.113	1222772.461	1.750	10.055	1.124	1222187.500	1.600	12.169	4.768	0.000	0.000
1221641.602	-0.804	8.953	-0.424	1221907.227	-1.231	28.259	5.544	1222869.141	-1.489	3.065	1.629	1221601.562	5.651	7.509	-0.280	1222791.992	4.038	10.756	-1.049	1222207.031	-0.022	11.185	2.590	0.000	0.000
1221661.133	-0.282	7.689	-0.213	1221926.758	-2.808	12.417	-0.486	1222888.672	-0.565	3.193	1.773	1221621.094	5.927	14.271	0.356	1222811.523	11.911	19.451	2.086	1222226.562	-1.484	9.904	3.894	0.000	0.000
1221680.664	-0.040	6.577	0.009	1221946.289	0.154	6.558	-1.972	1222908.203	0.287	3.319	1.957	1221640.625	13.515	16.173	-6.183	1222831.055	9.904	17.813	-1.453	1222246.094	-1.099	9.011	4.724	0.000	0.000
1221700.195	-0.158	5.114	0.217	1221965.820	-1.731	8.663	0.197	1222927.734	1.488	4.017	1.251	1221660.156	11.248	19.774	-6.006	1222850.586	13.316	19.766	3.937	1222265.625	-2.395	8.394	4.232	0.000	0.000
1221719.727	0.010	4.346	1.017	1221985.352	-3.269	10.082	1.472	1222947.266	2.613	5.696	2.308	1221679.687	7.732	20.078	-3.718	1222870.117	15.648	16.653	3.227	1222285.156	-2.954	6.881	3.923	0.000	0.000
1221739.258	-0.510	4.033	1.047	1222004.883	-0.154	9.023	2.565	1222966.797	3.076	7.393	3.879	1221699.219	3.818	22.934	0.991	1222889.648	14.412	9.336	2.916	1222304.687	-2.823	5.436	3.747	0.000	0.000
1221758.789	-0.229	3.344	1.089	1222024.414	0.885	7.608	2.934	1222986.328	3.002	8.009	5.154	1221718.750	1.275	20.399	4.416	1222909.180	13.315	5.592	2.241	1222324.219	-2.468	4.580	3.733	0.000	0.000
1221778.320	0.304	3.311	2.442	1222043.945	0.231	6.678	3.116	1223005.859	3.016	11.263	5.613	1221738.281	-0.370	15.984	5.344	1222928.711	2.447	-3.044	3.101	1222343.750	-2.163	4.318	4.297	0.000	0.000
1221797.852	0.837	4.278	3.726	1222063.477	0.154	7.425	2.828	1223025.391	3.915	15.701	8.098	1221757.812	-2.939	11.307	6.063	1222948.242	9.663	-15.783	-2.121	1222363.281	-0.844	3.120	4.317	0.000	0.000
1221817.383	1.236	6.551	3.595	1222083.008	-1.192	6.508	2.381	1223044.922	7.822	18.520	8.101	1221777.344	-0.806	9.984	3.984	1222967.773	-0.419	2.965	-5.972	1222382.812	-0.640	3.340	2.990	0.000	0.000
1221836.914	1.097	8.549	1.657	1222102.539	-0.923	6.306	1.371	1223064.453	13.446	21.795	6.680	1221796.875	0.812	8.695	4.252	1222987.305	10.507	-2.922	-0.088	1222402.344	-2.646	4.249	2.706	0.000	0.000
1221856.445	-0.322	8.843	-0.195	1222122.070	-0.231	6.382	-0.571	1223083.984	20.332	24.074	7.317	1221816.406	0.660	7.948	4.438	1223006.836	6.016	-3.568	1.726	1222421.875	-4.557	6.897	2.622	0.000	0.000
1221875.977	-1.228	7.834	1.244	1222141.602	-1.385	7.084	-0.499	1223103.516	24.708	20.488	8.055	1221835.937	-0.107	6.636	4.706	1223026.367	3.223	-1.107	1.401	1222441.406	-2.212	6.652	2.998	0.000	0.000
1221895.508	0.020	6.885	2.024	1222161.133	-2.808	10.866	1.159	1223123.047	20.169	14.718	9.319	1221855.469	-0.954	4.224	4.561	1223045.898	4.589	3.276	1.881	1222460.937	3.422	4.077	3.738	0.000	0.000
1221915.039	1.775	7.287	1.507	1222180.664	-2.500	11.616	2.533	1223142.578	13.380	9.948	9.775	1221875.000	-0.879	2.342	4.371	1223065.430	3.838	2.284	0.252	1222480.469	4.887	4.692	2.734	0.000	0.000
1221934.570	2.431	8.063	-0.861	1222200.195	-0.615	3.291	0.251	1223162.109	8.265	5.458	7.794	1221894.531	-0.072	2.092	4.318	1223084.961	3.184	3.715	-0.232	1222500.000	3.960	5.294	2.565	0.000	0.000
1221954.102	0.939	11.625	1.852	1222219.727	-0.077	1.407	-3.697	1223181.641	3.023	4.103	3.111	1221914.062	-2.553	2.713	6.240	1223104.492	1.190	8.858	2.097	1222519.531	-0.842	6.823	0.499	0.000	0.000
1221973.633	1.398	13.206	-0.234	1222239.258	-2.692	0.443	-3.634	1223201.172	-0.561	6.058	0.435	1221933.594	-2.608	2.761	4.627	1223124.023	-1.374	12.434	3.914	1222539.062	-2.030	7.724	2.923	0.000	0.000
1221993.164	-1.850	17.251	2.961	1222258.789	-8.346	-1.811	-3.889	1223220.703	-3.312	7.612	-1.132	1221953.125	-0.475	2.734	2.549	1223143.555	-4.256	19.155	4.307	1222558.594	8.709	14.172	11.128	0.000	0.000
1222012.695	-4.431	19.494	4.939	1222278.320	-13.808	7.481	1.861	1223240.234	-3.469	6.129	-1.348	1221972.656	1.793	3.244	2.348	1223163.086	-11.891	19.924	5.968	1222578.125	-6.190	16.692	10.045	0.000	0.000
1222032.227	-2.275	14.785	0.482	1222297.852	-7.500	12.811	3.913	1223259.766	-1.476	4.504	-1.540	1221992.187	6.271	7.987	-3.636	1223182.617	-20.558	19.693	6.887	1222597.656	-0.610	13.673	8.830	0.000	0.000
1222051.758	-2.433	15.437	0.676	1222317.383	0.654	16.548	4.068	1223279.297	-0.465	4.332	-0.841	1222011.719	7.088	14.195	-6.610	1223202.148	-25.476	13.569	2.684	1222617.187	1.932	13.203	5.117	0.000	0.000
1222071.289	-1.352	16.025	0.815	1222336.914	1.808	16.291	3.955	1223298.828	0.896	3.460	0.224	1222031.250	7.077	16.640	-11.579	1223221.680	-31.674	6.080	-0.126	1222636.719	-1.115	13.122	6.089	0.000	0.000
1222090.820	-1.193	15.873	0.726	1222356.445	8.385	13.605	-0.629	1223318.359	3.289	2.360	0.253	1222050.781	5.584	5.275	-14.722	1223241.211	-37.639	-3.285	-0.975	1222656.250	0.226	16.146	7.404	0.000	0.000
1222110.352	-0.797	13.454	0.281	1222375.977	0.077	16.980	1.014	1223337.891	5.884	2.771	1.384	1222070.312	-2.223	10.152	-10.737	1223260.742	-15.409	17.732	6.103	1222675.781	-0.576	15.598	7.350	0.000	0.000
1222129.883	-0.795	11.261	0.451	1222395.508	-6.615	18.166	0.975	1223357.422	8.160	3.997	1.770	1222089.844	6.962	5.932	-11.452	1223280.273	-51.734	46.320	11.373	1222695.312	-1.500	14.089	5.149	0.000	0.000
1222149.414	-0.803	8.992	-0.262	1222415.039	-4.615	16.595	-0.111	1223376.953	9.504	6.010	3.154	1222109.375	10.046	12.852	4.579	1223299.805	34.832	-19.102	2.044	1222714.844	-0.621	11.784	4.197	0.000	0.000
1222168.945	-0.842	7.030	-0.200	1222434.570	-4.346	14.975	-0.581	1223396.484	10.901	8.771	3.934	1222128.906	-10.296	16.170	-10.337	1223319.336	17.804	38.530	24.211	1222734.375	-1.676	10.128	3.675	0.000	0.000
1222188.477	-1.402	5.640	-0.224	1222454.102	-3.808	14.069	0.242	1223416.016	14.052	14.131	3.862	1222148.437	-3.056	21.388	2.091	1223338.867	-22.468	-4.930	-28.071	1222753.906	-2.244	8.911	3.925	0.000	0.000
1222208.008	-1.125	4.758	-0.511	1222473.633	-1.615	12.953	0.504	1223435.547	15.398	23.913	6.174	1222167.969	-4.162	14.163	3.042	1223358.398	5.038	18.761	-1.155	1222773.437	-1.303	7.828	3.253	0.000	0.000
1222227.539	-0.764	4.531	-0.366	1222493.164	-0.115	10.036	0.070	1223455.078	7.010	27.615	11.793	1222187.500	9.318	13.434	0.998	1223377.930	15.096	24.884	8.996	1222792.969	-0.864	6.453	3.011	0.000	0.000
1222247.070	-0.394	4.342	0.581	1222512.695	0.615	7.888	0.028	1223474.609	-2.841	24.516	9.388	1222207.031	16.327	19.329	1.890	1223397.461	3.727	6.522	-2.300	1222812.500	0.375	5.367	3.268	0.000	0.000
1222266.602	-0.666	4.647	1.439	1222532.227	-0.500	6.266	-0.355	1223494.141	-6.499	25.089	11.386	1222226.562	5.455	10.477	3.206	1223416.992	3.663	9.694	0.930	1222832.031	0.886	4.658	2.921	0.000	0.000
1222286.133	-0.625	4.455	1.549	1222551.758	-0.962	5.079	-0.228	1223513.672	-9.371	24.000	10.867	1222246.094	2.107	10.931	3.002	1223436.523	3.325	10.029	2.376	1222851.562	1.465	4.245	3.057	0.000	0.000
1222305.664	-0.780	4.108	1.973	1222571.289	-1.808	3.379	-0.420	1223533.203	-10.157	21.777	9.381	1222265.625	2.292	11.252	2.252	1223456.055	4.268	10.466	0.316	1222871.094	1.776	4.056	2.973	0.000	0.000
1222325.195	-0.779	5.185	2.147	1222590.820	-2.192	1.992	-1.461	1223552.734	-8.492	18.036	9.048	1222285.156	1.820	10.685	1.218	1223475.586	2.603	13.038	2.949	1222890.625	1.277	4.061	2.810	0.000	0.000
1222344.727	-0.909	6.452	1.052	1222610.352	-1.231	2.550	-1.551	1223572.266	-5.498	14.178	8.218	1222304.687	2.083	8.780	0.604	1223495.117	2.333	9.253	1.609	1222910.156	0.670	4.401	1.668	0.000	0.000
1222364.258	-0.914	7.299	0.614	1222629.883	-1.577	3.702	-1.774	1223591.797	-1.661	11.291	8.324	1222324.219	2.879	7.267	-0.526	1223514.648	1.175	8.781	2.900	1222929.687	-0.132	4.816	0.681	0.000	0.000
1222383.789	-1.796	8.059	0.421	1222649.414	-2.654	3.046	-2.309	1223611.328	3.879	8.619	8.833	1222343.750	3.103	5.290	-1.221	1223534.180	-0.206	8.811	3.031	1222949.219	-0.808	5.527	2.178	0.000	0.000
1222403.320	-0.891	9.145	-1.134	1222668.945	-3.538	4.449	-2.061	1223630.859	7.153	7.979	9.031	1222363.281	4.525	5.232	-1.301	1223553.711	0.045	8.279	2.573	1222968.750	-2.211	6.207	3.390	0.000	0.000
1222422.852	-0.489	12.764	3.083	1222688.477	-3.038	6.911	0.723	1223650.391	6.295	7.423	7.317	1222382.812	4.945	4.285	-1.666	1223573.242	0.786	8.411	2.881	1222988.281	-3.465	7.553	4.306	0.000	0.000
1222442.383	-0.715	13.647	0.529	1222708.008	-0.423	8.065	4.137	1223669.922	5.777	6.613	5.770	1222402.344	5.913	4.903	-0.975	1223592.773	0.986	8.615	1.776	1223007.812	-1.173	8.715	4.702	0.000	0.000
1222461.914	1.301	14.282	2.101	1222727.539	1.846	7.510	4.138	1223689.453	5.308	6.846	3.796	1222421.875	6.214	5.297	-1.644	1223612.305	0.594	8.589	1.548	1223027.344	-7.776	14.078	9.715	0.000	0.000
1222481.445	1.474	17.169	3.444	1222747.070	2.846	12.560	-2.054	1223708.984	4.261	6.835	2.778	1222441.406	4.955	3.366	-0.683	1223631.836	0.363	8.476	1.582	1223046.875	-2.996	10.734	8.076	0.000	0.000
1222500.977	-0.227	18.382	1.281	1222766.602	0.769	17.453	10.681	1223728.516	3.671	6.567	2.463	1222460.937	3.695	2.621	0.273	1223651.367	-1.585	7.614	1.050	1223066.406	-4.896	11.901	8.466	0.000	0.000
1222520.508	0.047	19.231	0.681	1222786.133	6.308	17.797	-4.642	1223748.047	1.924	6.902	2.522	1222480.469	4.310	4.111	0.208	1223670.898	2.879	9.918	1.643	1223085.937	-4.915	15.271	6.971	0.000	0.000
1222540.039	-0.137	18.768	2.260	1222805.664	-0.192	11.298	1.746	1223767.578	0.258	6.797	2.317	1222500.000	5.228	7.505	-0.280	1223690.430	4.378	11.701	2.274	1223105.469	-3.752	13.889	7.474	0.000	0.000
1222559.570	-0.752	14.646	0.780	1222825.195	-5.462	7.810	5.785	1223787.109	-1.032	6.184	1.800	1222519.531	5.250	10.295	-1.921	1223709.961	4.320	12.637	1.330	1223125.000	-3.250	16.884	8.117	0.000	0.000
1222579.102	-1.117	12.066	0.334	1222844.727	-5.769	21.644	3.001	1223806.641	-1.969	4.688	1.329	1222539.062	3.843	10.053	-4.204	1223729.492	5.563	13.756	2.654	1223144.531	-3.624	16.407	7.576	0.000	0.000
1222598.633	-1.352	9.871	0.827	1222864.258	3.538	14.258	1.904	1223826.172	-3.146	4.039	0.923	1222558.594	5.693	8.766	-7.589	1223749.023	7.539	17.632	4.406	1223164.062	-0.065	13.149	4.919	0.000	0.000
1222618.164	-0.481	8.995	-0.145	1222883.789	0.385	21.268	1.401	1223845.703	-3.747	2.366	0.356	1222578.125	9.733	11.618	-7.495	1223768.555	11.179	18.880	6.098	1223183.594	0.347	11.478	3.849	0.000	0.000
1222637.695	0.240	7.887	0.032	1222903.320	-1.269	16.341	1.474	1223865.234	-4.465	0.695	-0.670	1222597.656	12.376	18.709	-4.685	1223788.086	14.798	18.084	6.475	1223203.125	-1.143	10.271	4.004	0.000	0.000
1222657.227	0.236	6.425	-0.441	1222922.852	-3.923	8.503	0.756	1223884.766	-4.331	-0.632	-1.035	1222617.187	9.164	22.061	1.016	1223807.617	15.164	14.479	4.486	1223222.656	-1.397	8.681	4.118	0.000	0.000
1222676.758	-0.197	5.267	0.305	1222942.383	-4.462	9.292	0.231	1223904.297	-3.388	-1.465	-1.035	1222636.719	5.066	18.631	6.579	1223827.148	7.836	6.684	-2.562	1223242.187	-1.655	7.868	3.825	0.000	0.000
1222696.289	0.804	4.508	0.417	1222961.914	-4.615	10.313	1.040	1223923.828	-1.174	-0.578	-0.055	1222656.250	-0.365	12.892	9.658	1223846.680	-4.595	-13.052	-2.660	1223261.719	-1.980	6.316	3.210	0.000	0.000
1222715.820	0.291	3.657	1.060	1222981.445	-1.000	9.454	1.352	1223943.359	-0.168	1.796	1.591	1222675.781	-3.603	8.029	8.943	1223866.211	17.265	-12.401	6.545	1223281.250	-1.886	4.908	2.960	0.000	0.000
1222735.352	0.055	3.231	1.481	1223000.977	0.654	7.117	1.544	1223962.891	1.872	4.338	3.266	1222695.312	-0.449	7.658	5.075	1223885.742	14.166	11.895	2.841	1223300.781	-1.800	4.351	2.576	0.000	0.000
1222754.883	-0.141	3.345	1.929	1223020.508	0.423	5.191	1.578	1223982.422	3.525	6.018	5.274	1222714.844	1.637	8.428	6.044	1223905.273	9.703	-12.357	-3.223	1223320.312	-1.679	3.535	2.791	0.000	0.000
1222774.414	0.061	4.501	2.144	1223040.039	0.192	5.582	0.527	1224001.953	5.537	8.187	7.155	1222734.375	1.334	10.375	6.469	1223924.805	4.695	-6.879	-0.190	1223339.844	-1.794	3.759	2.612	0.000	0.000
1222793.945	0.853	5.432	1.263	1223059.570	-0.154	5.923	0.125	1224021.484	10.030	12.694	9.919	1222753.906	0.445	9.972	6.021	1223944.336	7.361	1.615	2.523	1223359.375	-1.707	3.536	1.790	0.000	0.000
1222813.477	1.374	5.975	1.365	1223079.102	-0.962	6.480	0.076	1224041.016	16.414	18.979	9.000	1222773.437	0.284	7.769	5.312	1223963.867	6.093	6.330	2.280	1223378.906	-1.471	3.755	1.003	0.000	0.000
1222833.008	2.141	7.137	2.055	1223098.633	-1.154	5.618	0.580	1224060.547	15.177	14.575	6.140	1222792.969	-1.606	6.026	4.785	1223983.398	3.513	12.591	5.220	1223398.437	0.638	4.142	1.264	0.000	0.000
1222852.539	2.180	7.368	1.987	1223118.164	-1.538	5.336	-0.142	1224080.078	13.775	13.817	5.153	1222812.500	-1.234	4.994	3.492	1224002.930	0.437	11.327	3.098	1223417.969	1.300	5.543	2.952	0.000	0.000
1222872.070	1.893	8.750	1.339	1223137.695	-2.615	3.463	-0.929	1224099.609	10.524	15.306	5.246	1222832.031	-0.944	5.161	1.733	1224022.461	-0.836	8.864	1.233	1223437.500	1.908	7.277	5.817	0.000	0.000
1222891.602	-0.063	10.615	1.691	1223157.227	-2.423	2.270	-0.521	1224119.141	17.448	20.382	11.539	1222851.562	-1.059	4.565	1.812	1224041.992	-4.601	13.586	2.361	1223457.031	1.228	9.210	6.477	0.000	0.000
1222911.133	0.484	14.313	4.351	1223176.758	-2.308	6.806	0.421	1224138.672	14.758	20.679	17.152	1222871.094	-2.258	4.986	-2.739	1224061.523	-10.179	18.007	7.259	1223476.562	-2.566	8.729	5.560	0.000	0.000
1222930.664	-0.926	14.452	3.372	1223196.289	-5.077	10.634	1.634	1224158.203	1.947	12.255	8.050	1222890.625	0.128	4.342	-6.432	1224081.055	-12.246	20.439	6.772	1223496.094	1.133	10.692	6.810	0.000	0.000
1222950.195	-2.392	15.207	4.824	1223215.820	-6.692	10.232	3.223	1224177.734	-5.226	2.334	0.576	1222910.156	3.962	7.011	-7.695	1224100.586	-20.252	16.539	4.041	1223515.625	2.705	10.269	7.696	0.000	0.000
1222969.727	-2.649	16.704	3.062	1223235.352	-1.615	6.695	2.273	1224197.266	-5.818	5.190	-4.751	1222929.687	6.781	14.636	-10.314	1224120.117	-26.452	10.993	-2.076	1223535.156	0.600	12.883	7.837	0.000	0.000
1222989.258	-1.539	16.869	2.139	1223254.883	2.231	7.720	-0.799	1224216.797	-3.649	14.036	0.171	1222949.219	12.676	10.707	-13.165	1224139.648	-34.213	-4.271	-5.683	1223554.687	1.413	14.616	5.667	0.000	0.000
1223008.789	-0.348	16.920	1.209	1223274.414	-2.846	11.061	0.636	1224236.328	-6.498	6.933	-2.577	1222968.750	7.623	4.358	-6.931	1224159.180	-22.336	7.139	-2.041	1223574.219	1.614	14.021	5.321	0.000	0.000
1223028.320	0.006	16.346	0.617	1223293.945	3.192	17.696	-1.482	1224255.859	-5.912	5.099	-3.256	1222988.281	3.930	-2.380	-7.027	1224178.711	6.674	29.469	11.355	1223593.750	2.002	13.943	5.093	0.000	0.000
1223047.852	0.251	14.426	1.079	1223313.477	2.077	18.147	-1.814	1224275.391	-1.880	4.566	-1.104	1223007.812	16.680	3.697	-12.740	1224198.242	-77.043	23.250	30.550	1223613.281	-0.948	13.898	3.954	0.000	0.000
1223067.383	0.686	11.276	0.597	1223333.008	-4.808	13.814	-1.799	1224294.922	1.704	3.845	0.350	1223027.344	1.387	20.731	15.590	1224217.773	77.313	-9.950	8.630	1223632.812	-2.163	14.985	5.198	0.000	0.000
1223086.914	0.725	9.276	0.537	1223352.539	-9.692	12.102	-1.380	1224314.453	6.496	4.288	2.670	1223046.875	-3.849	19.239	-8.000	1224237.305	2.727	19.576	15.147	1223652.344	-2.192	14.059	5.171	0.000	0.000
1223106.445	0.202	7.810	0.228	1223372.070	-11.885	13.368	0.139	1224333.984	13.387	7.254	5.086	1223066.406	-0.624	11.792	3.015	1224256.836	-19.589	-3.570	-19.711	1223671.875	-2.114	11.540	3.727	0.000	0.000
1223125.977	0.193	6.425	-0.681	1223391.602	-4.769	14.224	-0.111	1224353.516	22.024	14.497	9.190	1223085.937	-13.816	16.470	6.873	1224276.367	6.834	10.372	-0.023	1223691.406	-1.131	9.863	3.245	0.000	0.000
1223145.508	0.155	5.540	-0.485	1223411.133	2.500	14.964	-0.061	1224373.047	19.355	26.502	14.391	1223105.469	-6.366	13.690	5.744	1224295.898	-1.518	6.899	3.506	1223710.937	-0.683	7.785	2.800	0.000	0.000
1223165.039	0.165	4.040	0.480	1223430.664	2.308	11.676	-0.443	1224392.578	6.239	25.814	12.528	1223125.000	9.996	25.272	-11.907	1224315.430	17.878	11.349	15.233	1223730.469	-0.626	5.895	2.862	0.000	0.000
1223184.570	-0.589	2.340	1.123	1223450.195	1.615	7.987	-1.213	1224412.109	-1.385	20.721	6.632	1223144.531	13.171	17.751	-2.127	1224334.961	10.295	10.218	-5.105	1223750.000	-0.079	4.964	2.923	0.000	0.000
1223204.102	-0.951	1.760	0.897	1223469.727	-0.615	6.869	-0.847	1224431.641	-5.575	24.384	6.049	1223164.062	-0.896	7.387	6.559	1224354.492	2.653	10.324	1.670	1223769.531	0.048	4.222	2.566	0.000	0.000
1223223.633	-0.908	2.606	1.219	1223489.258	-1.385	5.438	0.330	1224451.172	-8.090	23.060	3.738	1223183.594	7.814	7.570	8.300	1224374.023	1.964	10.328	3.062	1223789.062	0.430	3.551	3.411	0.000	0.000
1223243.164	-1.308	4.448	1.235	1223508.789	-1.615	3.182	0.184	1224470.703	-8.153	20.869	4.201	1223203.125	5.562	8.647	6.211	1224393.555	3.244	9.133	2.516	1223808.594	1.783	3.204	3.068	0.000	0.000
1223262.695	-1.672	6.022	0.758	1223528.320	-2.231	1.540	-1.075	1224490.234	-4.483	17.306	4.840	1223222.656	1.800	11.370	3.067	1224413.086	2.770	9.343	2.033	1223828.125	1.554	4.244	1.867	0.000	0.000
1223282.227	-2.266	6.439	1.385	1223547.852	-1.885	2.838	-1.157	1224509.766	-2.000	14.122	6.029	1223242.187	1.121	9.550	0.573	1224432.617	2.536	9.414	0.616	1223847.656	0.931	4.361	2.555	0.000	0.000
1223301.758	-2.419	6.437	2.066	1223567.383	-1.808	2.251	-1.433	1224529.297	-0.858	10.955	6.476	1223261.719	3.036	7.333	-0.214	1224452.148	3.396	11.358	1.724	1223867.187	-0.731	4.452	3.220	0.000	0.000
1223321.289	-2.031	7.557	0.878	1223586.914	-0.885	2.290	0.319	1224548.828	0.822	8.687	6.976	1223281.250	5.142	6.496	-1.226	1224471.680	1.498	7.756	1.181	1223886.719	-2.754	5.546	4.449	0.000	0.000
1223340.820	-1.007	10.490	3.295	1223606.445	-2.231	6.446	3.625	1224568.359	3.398	7.774	7.169	1223300.781	3.626	6.195	-2.821	1224491.211	0.710	8.475	1.617	1223906.250	-3.722	6.371	4.295	0.000	0.000
1223360.352	-0.238	15.805	0.153	1223625.977	-2.077	9.869	4.710	1224587.891	4.786	6.295	6.037	1223320.312	3.375	4.992	-4.777	1224510.742	0.861	8.104	1.631	1223925.781	-1.717	6.943	3.182	0.000	0.000
1223379.883	-0.120	17.422	3.952	1223645.508	1.385	13.186	-0.033	1224607.422	4.969	5.684	4.529	1223339.844	5.895	2.739	-6.605	1224530.273	0.846	7.715	1.262	1223945.312	-6.233	12.618	6.874	0.000	0.000
1223399.414	0.885	18.855	4.534	1223665.039	3.538	11.845	-3.366	1224626.953	5.076	5.580	3.981	1223359.375	8.328	2.771	-5.641	1224549.805	3.996	12.771	4.572	1223964.844	-1.746	13.980	10.636	0.000	0.000
1223418.945	1.927	15.904	0.656	1223684.570	1.808	7.649	6.417	1224646.484	4.171	6.305	3.781	1223378.906	9.225	6.154	-8.246	1224569.336	4.755	9.272	-0.991	1223984.375	-2.359	13.394	10.967	0.000	0.000
1223438.477	1.285	16.667	0.540	1223704.102	0.000	14.619	-6.869	1224666.016	3.018	6.505	3.703	1223398.437	8.676	7.294	-9.370	1224588.867	5.604	10.089	2.665	1224003.906	-3.916	13.261	5.273	0.000	0.000
1223458.008	1.538	20.900	1.790	1223723.633	-7.462	18.364	5.858	1224685.547	1.344	6.697	3.365	1223417.969	2.537	7.112	-7.842	1224608.398	6.317	10.157	2.046	1224023.437	-1.503	12.126	3.588	0.000	0.000
1223477.539	-0.437	19.803	4.315	1223743.164	-3.885	15.598	3.439	1224705.078	-0.403	6.705	2.747	1223437.500	-0.589	8.661	-1.250	1224627.930	6.202	10.078	-3.034	1224042.969	-2.390	13.913	5.811	0.000	0.000
1223497.070	-0.826	12.453	-2.609	1223762.695	-0.077	11.555	0.038	1224724.609	-1.593	7.050	2.910	1223457.031	1.611	8.625	-4.252	1224647.461	6.886	16.935	7.217	1224062.500	-8.874	21.385	12.166	0.000	0.000
1223516.602	-2.149	11.594	1.121	1223782.227	-1.500	12.334	1.803	1224744.141	-2.880	6.435	2.623	1223476.562	3.287	11.062	-5.913	1224666.992	8.421	16.507	4.675	1224082.031	-4.033	15.411	7.075	0.000	0.000
1223536.133	-2.550	10.321	1.022	1223801.758	0.846	18.697	2.167	1224763.672	-3.411	4.803	1.789	1223496.094	11.852	18.994	-3.245	1224686.523	15.694	19.324	3.887	1224101.562	2.759	12.380	4.037	0.000	0.000
1223555.664	-1.520	8.292	-0.010	1223821.289	2.538	30.940	6.718	1224783.203	-3.162	3.147	1.245	1223515.625	14.513	25.180	1.318	1224706.055	16.484	16.493	4.209	1224121.094	1.949	11.055	1.774	0.000	0.000
1223575.195	-0.115	6.730	0.458	1223840.820	2.731	8.097	-1.144	1224802.734	-2.229	2.759	1.161	1223535.156	7.544	20.161	8.248	1224725.586	11.996	11.648	1.117	1224140.625	0.880	8.362	3.680	0.000	0.000
1223594.727	0.597	5.468	-0.333	1223860.352	-2.808	5.798	-1.015	1224822.266	-1.346	2.928	0.847	1223554.687	3.206	16.867	12.897	1224745.117	8.291	4.872	5.517	1224160.156	-0.280	8.262	4.304	0.000	0.000
1223614.258	0.716	4.353	-0.389	1223879.883	-8.462	8.692	0.603	1224841.797	0.369	2.877	1.886	1223574.219	0.075	11.660	11.353	1224764.648	10.652	-13.333	-0.753	1224179.687	-2.473	7.914	4.774	0.000	0.000
1223633.789	0.439	2.812	-0.064	1223899.414	-7.192	7.936	1.337	1224861.328	1.767	4.003	3.206	1223593.750	3.049	8.475	4.932	1224784.180	5.020	-4.338	0.843	1224199.219	-3.332	5.996	4.161	0.000	0.000
1223653.320	0.326	2.849	0.579	1223918.945	-1.538	8.187	1.778	1224880.859	3.012	5.240	4.230	1223613.281	1.783	8.751	5.179	1224803.711	12.909	-8.358	-0.246	1224218.750	-2.470	4.691	3.817	0.000	0.000
1223672.852	0.093	2.232	1.271	1223938.477	0.346	8.008	1.455	1224900.391	3.057	4.761	4.118	1223632.812	-1.174	9.264	5.633	1224823.242	5.152	-4.404	1.415	1224238.281	-2.377	3.431	3.462	0.000	0.000
1223692.383	0.662	1.968	2.172	1223958.008	-0.154	6.482	1.823	1224919.922	5.469	6.401	4.185	1223652.344	-2.144	8.833	4.838	1224842.773	4.451	-3.022	1.928	1224257.812	-1.377	2.792	4.168	0.000	0.000
1223711.914	0.508	3.044	2.787	1223977.539	0.462	6.657	2.311	1224939.453	7.150	11.468	4.583	1223671.875	-2.490	6.829	4.871	1224862.305	5.276	-2.110	2.205	1224277.344	-0.475	1.634	3.566	0.000	0.000
1223731.445	0.258	4.810	1.798	1223997.070	0.000	5.393	0.739	1224958.984	9.769	13.780	4.462	1223691.406	-2.493	3.876	4.540	1224881.836	3.735	0.653	2.502	1224296.875	-1.526	2.015	0.611	0.000	0.000
1223750.977	0.652	6.891	1.218	1224016.602	0.269	4.905	1.052	1224978.516	9.363	15.187	3.760	1223710.937	-3.915	3.415	4.628	1224901.367	3.207	6.731	4.641	1224316.406	-3.371	3.293	-0.760	0.000	0.000
1223770.508	1.343	7.860	2.260	1224036.133	1.308	4.797	-0.936	1224998.047	8.161	15.616	2.853	1223730.469	-4.209	3.517	6.057	1224920.898	1.549	10.343	2.028	1224335.937	-1.057	4.122	1.614	0.000	0.000
1223790.070	2.568	9.256	0.797	1224055.664	0.577	6.538	0.881	1225017.578	9.444	16.889	4.109	1223750.000	-1.615	2.423	3.876	1224940.430	-1.656	9.498	1.894	1224355.469	1.680	5.242	3.631	0.000	0.000
1223809.570	-0.305	14.535	1.530	1224075.195	1.308	7.197	1.256	1225037.109	11.965	16.971	4.564	1223769.531	0.338	0.912	3.055	1224959.961	-5.670	13.760	2.575	1224375.000	1.771	7.316	4.009	0.000	0.000
1223829.102	-0.071	16.615	0.911	1224094.727	0.962	5.664	0.126	1225056.641	13.294	16.022	5.856	1223789.062	2.861	3.428	1.513	1224979.492	-9.681	22.052	7.112	1224394.531	-2.619	9.100	2.777	0.000	0.000
1223848.633	-2.057	16.249	2.273	1224114.258	-2.308	4.408	-0.040	1225076.172	10.559	10.407	6.363	1223808.594	7.698	8.842	-3.277	1224999.023	-19.258	23.625	10.456	1224414.062	6.156	10.938	8.081	0.000	0.000
1223868.164	-2.675	16.819	4.468	1224133.789	-7.077	5.490	1.413	1225095.703	8.327	4.490	4.686	1223828.125	11.175	14.727	-9.386	1225018.555	-29.689	11.659	9.035	1224433.594	1.279	15.098	7.006	0.000	0.000
1223887.695	-0.978	15.990	2.249	1224153.320	-6.538	5.364	2.183	1225115.234	6.050	4.245	2.407	1223847.656	6.656	17.704	-11.361	1225038.086	-37.380	4.111	5.197	1224453.125	0.213	15.146	9.680	0.000	0.000
1223907.227	0.324	14.580	0.406	1224172.852	-6.038	8.040	1.715	1225134.766	3.588	8.572	1.836	1223867.187	5.040	7.877	-15.220	1225057.617	-50.245	-6.289	-6.067	1224472.656	1.241	15.210	6.859	0.000	0.000
1223926.758	0.728	14.353	0.790	1224192.383	-4.846	18.485	1.690	1225154.297	0.744	11.413	0.938	1223886.719	-2.081	6.334	-8.120	1225077.148	19.457	12.979	21.161	1224492.187	0.913	14.028	6.193	0.000	0.000
1223946.289	-0.587	16.340	1.263	1224211.914	2.385	17.972	-0.476	1225173.828	-0.800	10.064	-0.626	1223906.250	12.437	6.717	-2.482	1225096.680	-78.627	-2.076	-7.377	1224511.719	-1.947	12.316	5.477	0.000	0.000
1223965.820	-0.949	13.875	1.063	1224231.445	2.615	16.036	-1.780	1225193.359	-0.277	10.361	0.423	1223925.781	5.367	9.280	9.749	1225116.211	77.541	23.007	6.528	1224531.250	-2.231	14.170	5.063	0.000	0.000
1223985.352	-0.325	10.689	-0.502	1224250.977	-3.462	15.702	-1.775	1225212.891	2.030	11.739	0.550	1223945.312	-1.339	16.352	-14.634	1225135.742	-23.896	17.689	18.070	1224550.781	0.727	16.696	6.799	0.000	0.000
1224004.883	0.043	8.077	0.283	1224270.508	-8.269	16.065	0.466	1225232.422	3.454	13.167	1.353	1223964.844	-3.151	23.738	0.270	1225155.273	15.146	7.321	-2.712	1224570.312	0.393	12.478	5.920	0.000	0.000
1224024.414	0.958	6.433	-0.208	1224290.039	-4.000	14.355	0.761	1225251.953	4.111	14.279	2.571	1223984.375	-11.003	15.341	3.497	1225174.805	-0.871	15.212	-7.194	1224589.844	-0.357	9.078	3.513	0.000	0.000
1224043.945	1.320	4.706	0.022	1224309.570	0.538	12.342	-0.425	1225271.484	5.487	18.294	3.786	1224003.906	8.426	12.667	0.337	1225194.336	3.877	15.752	3.483	1224609.375	-0.947	7.491	2.621	0.000	0.000
1224063.477	1.680	3.248	0.026	1224329.102	-1.346	11.648	-0.941	1225291.016	3.876	24.163	6.306	1224023.437	12.749	16.222	1.781	1225213.867	5.083	6.393	-1.936	1224628.906	-0.121	5.668	2.548	0.000	0.000
1224083.008	0.449	2.428	0.877	1224348.633	-2.885	10.193	-0.396	1225310.547	0.529	25.781	8.179	1224042.969	5.164	10.500	4.822	1225233.398	4.584	9.822	2.082	1224648.437	-0.925	4.972	2.906	0.000	0.000
1224102.539	-0.146	2.806	1.422	1224368.164	-1.000	7.311	-0.743	1225330.078	-0.876	23.936	8.385	1224062.500	2.531	9.855	6.899	1225252.930	1.589	10.227	2.136	1224667.969	-0.882	3.898	3.524	0.000	0.000
1224122.070	-0.790	3.569	1.026	1224387.695	-0.462	3.958	0.231	1225349.609	-1.496	21.808	8.787	1224082.031	2.008	9.584	4.652	1225272.461	2.266	9.387	1.887	1224687.500	0.389	4.107	3.180	0.000	0.000
1224141.602	-1.034	4.682	0.564	1224407.227	-0.269	0.786	1.442	1225369.141	-2.504	18.237	8.288	1224101.562	2.138	8.436	2.237	1225291.992	1.554	9.807	2.381	1224707.031	1.099	3.730	1.783	0.000	0.000
1224161.133	-1.158	6.950	0.239	1224426.758	-1.462	2.836	-2.918	1225388.672	-2.281	13.048	5.421	1224121.094	3.879	6.759	-0.556	1225311.523	2.435	10.077	2.157	1224726.562	1.372	4.394	0.758	0.000	0.000
1224180.664	-2.309	8.477	1.127	1224446.289	-3.038	3.415	-2.211	1225408.203	-0.390	10.615	4.405	1224140.625	5.708	6.272	-2.239	1225331.055	2.987	9.318	0.298	1224746.094	0.677	4.512	0.829	0.000	0.000
1224200.195	-3.393	9.043	0.686	1224465.820	-1.038	3.498	-2.702	1225427.734	1.370	9.541	4.217	1224160.156	6.309	6.730	-3.712	1225350.586	3.561	8.683	0.408	1224765.625	-1.149	5.937	1.316	0.000	0.000
1224219.727	-1.322	10.025	-0.166	1224485.352	-2.962	4.089	-2.617	1225447.266	2.616	8.308	4.106	1224179.687	5.636	8.076	-5.592	1225370.117	3.412	9.239	0.405	1224785.156	-2.561	7.063	2.866	0.000	0.000
1224239.258	-0.198	11.729	4.228	1224504.883	-3.038	4.748	1.473	1225466.797	3.377	7.430	4.453	1224199.219	5.142	7.610	-5.043	1225389.648	3.230	9.562	0.618	1224804.687	-3.282	8.366	4.482	0.000	0.000
1224258.789	0.718	10.046	-0.185	1224524.414	-5.962	6.538	4.596	1225486.328	3.858	7.586	4.685	1224218.750	4.037	6.050	-4.022	1225409.180	3.204	9.653	1.009	1224824.219	-2.883	9.029	6.151	0.000	0.000
1224278.320	2.033	14.328	3.336	1224543.945	-1.577	12.262	3.565	1225505.859	3.635	7.982	5.371	1224238.281	4.517	4.109	-2.138	1225428.711	2.076	8.996	0.827	1224843.750	-8.415	11.603	10.644	0.000	0.000
1224297.852	1.313	18.975	3.336	1224563.477	2.808	13.177	-1.467	1225525.391	2.631	8.111	5.246	1224257.812	5.251	3.256	-1.843	1225448.242	3.857	9.994	0.869	1224863.281	-0.321	8.114	4.792	0.000	0.000
1224317.383	-0.858	20.414	2.229	1224583.008	4.115	13.496	21.508	1225544.922	1.929	7.769	4.698	1224277.344	5.489	6.274	-1.124	1225467.773	4.041	11.110	1.511	1224882.812	-6.138	14.395	7.116	0.000	0.000
1224336.914	-0.099	19.076	2.075	1224602.539	5.538	16.438	5.887	1225564.453	1.118	7.205	3.982	1224296.875	4.990	8.154	-1.011	1225487.305	5.702	12.793	1.172	1224902.344	-5.088	15.569	8.642	0.000	0.000
1224356.445	-1.545	16.715	1.531	1224622.070	-0.346	5.329	2.073	1225583.984	0.224	7.228	3.540	1224316.406	4.321	8.451	-2.493	1225506.836	4.545	13.100	0.971	1224921.875	-3.037	14.030	8.883	0.000	0.000
1224375.977	-1.632	13.907	0.792	1224641.602	-0.692	14.997	5.686	1225603.516	-0.808	6.514	2.549	1224335.937	5.467	8.561	-3.294	1225526.367	7.905	15.384	1.959	1224941.406	-2.885	16.547	6.562	0.000	0.000
1224395.508	-1.269	11.910	1.128	1224661.133	-3.808	22.413	5.255	1225623.047	-1.565	5.098	1.888	1224355.469	6.466	9.760	-3.414	1225545.898	5.420	14.991	3.884	1224960.937	-1.292	14.457	7.063	0.000	0.000
1224415.039	-1.037	9.028	0.342	1224680.664	3.615	16.172	2.520	1225642.578	-1.844	3.914	1.195	1224375.000	10.466	14.095	-3.385	1225565.430	12.584	16.858	3.578	1224980.469	-0.254	12.521	5.179	0.000	0.000
1224434.570	-0.245	7.421	-0.467	1224700.195	3.731	14.971	1.426	1225662.109	-1.931	2.509	0.791	1224394.531	9.241	19.473	-2.793	1225584.961	12.129	15.679	4.204	1225000.000	0.541	11.106	4.019	0.000	0.000
1224454.102	0.273	5.887	-0.708	1224719.727	-3.038	13.285	0.579	1225681.641	-1.732	1.628	0.379	1224414.062	4.857	20.829	1.134	1225604.492	12.067	10.162	2.681	1225019.531	-0.313	9.003	3.047	0.000	0.000
1224473.633	0.477	4.812	-0.324	1224739.258	-4.423	11.069	0.259	1225701.172	-1.339	0.561	0.528	1224433.594	2.472	17.212	4.879	1225624.023	5.700	6.673	0.613	1225039.062	-0.916	7.417	3.385	0.000	0.000
1224493.164	1.008	4.202	0.760	1224758.789	-5.500	8.325	0.402	1225720.703	0.415	0.183	1.081	1224453.125	-0.700	12.490	6.903	1225643.555	-5.062	-16.275	-5.618	1225058.594	-1.136	6.122	3.598	0.000	0.000
1224512.695	0.976	4.356	1.568	1224778.320	-4.769	6.466	0.768	1225740.234	2.553	1.069	1.870	1224472.656	-4.131	8.257	6.111	1225663.086	18.303	-1.295	11.816	1225078.125	-1.581	4.757	3.378	0.000	0.000
1224532.227	0.738	4.623	1.784	1224797.852	-3.269	5.567	1.303	1225759.766	4.469	1.951	2.701	1224492.187	-1.732	6.426	3.732	1225682.617	17.172	0.530	9.399	1225097.656	-2.542	4.766	3.244	0.000	0.000
1224551.758	0.938	5.202	1.811	1224817.383	-1.269	6.308	1.287	1225779.297	4.977	2.699	3.051	1224511.719	2.554	9.309	5.366	1225702.148	9.623	-6.577	1.163	1225117.187	-3.622	4.666	3.639	0.000	0.000
1224571.289	0.772	5.508	1.188	1224836.914	-0.423	7.354	0.811	1225798.828	4.074	4.546	1.660	1224531.250	2.015	11.600	5.350	1225721.680	5.548	-6.654	1.238	1225136.719	-3.051	4.882	4.088	0.000	0.000
1224590.820	1.016	6.818	1.571	1224856.445	-1.038	8.342	1.416	1225818.359	5.361	9.555	3.331	1224550.781	-0.189	9.540	4.149	1225741.211	6.690	1.127	3.385	1225156.250	-1.615	4.424	3.239	0.000	0.000
1224610.352	1.213	7.743	1.295	1224875.977	-1.308	9.341	1.452	1225837.891	9.078	13.900	5.945	1224570.312	-1.997	6.301	4.109	1225760.742	5.640	7.768	4.640	1225175.781	-0.713	4.637	1.233	0.000	0.000
1224629.883	1.290	8.936	0.954	1224895.508	-0.538	6.847	0.229	1225857.422	11.155	15.281	5.347	1224589.844	-2.767	4.258	4.063	1225780.273	3.082	15.535	7.824	1225195.312	-0.064	4.890	1.533	0.000	0.000
1224649.414	1.811	8.518	1.128	1224915.039	-0.192	5.681	-0.703	1225876.953	10.588	15.281	4.166	1224609.375	-0.733	4.587	3.660	1225799.805	-4.442	8.236	0.462	1225214.844	0.061	6.481	2.801	0.000	0.000
1224668.945	1.240	8.205	0.038	1224934.570	-1.385	4.205	-0.999	1225896.484	10.709	14.657	3.889	1224628.906	-1.570	3.699	4.568	1225819.336	-11.560	8.644	-1.020	1225234.375	0.836	7.621	4.935	0.000	0.000
1224688.477	-0.331	11.189	2.923	1224954.102	-1.615	4.392	-1.066	1225916.016	11.665	13.629	4.875	1224648.437	-1.171	3.035	2.144	1225838.867	-8.765	17.305	2.049	1225253.906	-0.252	8.410	5.238	0.000	0.000
1224708.008	-0.233	11.421	0.653	1224973.633	-2.808	6.763	0.716	1225935.547	14.254	13.502	4.237	1224667.969	2.199	4.595	0.660	1225858.398	-7.326	21.684	1.144	1225273.437	-1.333	8.680	5.427	0.000	0.000
1224727.539	-1.295	13.102	2.508	1224993.164	-4.500	7.629	1.905	1225955.078	9.593	10.427	6.077	1224687.500	7.903	6.398	-2.001	1225877.930	-14.155	19.827	-0.246	1225292.969	3.696	11.185	7.703	0.000	0.000
1224747.070	-2.820	14.433	1.990	1225012.695	-6.269	7.397	2.351	1225974.609	2.950	8.168	3.936	1224707.031	12.276	9.852	-7.024	1225897.461	-21.612	16.457	-0.258	1225312.500	-0.818	10.527	5.874	0.000	0.000
1224766.602	-1.626	14.945	1.364	1225032.227	-4.654	6.593	-0.027	1225994.141	4.748	5.279	3.851	1224726.562	12.604	10.354	-8.840	1225916.992	-0.022	7.569	10.839	1225332.031	-0.067	12.408	5.829	0.000	0.000
1224786.133	-0.159	13.383	0.071	1225051.758	-1.692	10.830	1.102	1226013.672	7.356	4.516	3.900	1224746.094	6.016	8.878	-9.967	1225936.523	-25.792	-6.895	-3.579	1225351.562	0.229	13.627	5.805	0.000	0.000
1224805.664	0.184	14.040	-1.620	1225071.289	-2.500	13.580	0.652	1226033.203	5.105	7.150	2.591	1224765.625	4.029	7.633	-8.657	1225956.055	-18.855	9.547	1.646	1225371.094	-1.140	12.197	5.677	0.000	0.000
1224825.195	-0.692	18.878	2.831	1225090.820	3.462	15.126	-0.721	1226052.734	2.153	9.624	1.169	1224785.156	3.903	7.437	-5.861	1225975.586	11.175	32.862	1.283	1225390.625	-2.187	11.318	3.556	0.000	0.000
1224844.727	-2.102	13.902	1.796	1225110.352	1.769	16.721	-0.858	1226072.266	3.801	9.130	2.025	1224804.687	13.576	8.032	-3.941	1225995.117	-48.806	-0.722	-4.824	1225410.156	-0.350	14.781	4.874	0.000	0.000
1224864.258	-0.924	10.875	-0.367	1225129.883	-5.308	14.274	-0.733	1226091.797	4.114	8.756	2.954	1224824.219	1.490	10.555	6.672	1226014.648	51.037	26.011	7.935	1225429.687	3.762	19.185	8.457	0.000	0.000
1224883.789	0.124	9.732	0.365	1225149.414	-8.500	11.165	-0.854	1226111.328	5.110	10.959	3.242	1224843.750	7.513	16.484	-2.511	1226034.180	1.871	13.372	6.630	1225449.219	-1.754	12.055	5.616	0.000	0.000
1224903.320	-0.031	6.846	0.943	1225168.945	-5.192	11.409	-1.922	1226130.859	6.635	12.580	3.440	1224863.281	7.173	9.423	1.873	1226053.711	-4.959	8.710	-10.505	1225468.750	-4.594	10.379	2.904	0.000	0.000
1224922.852	-0.134	6.191	2.631	1225188.477	0.192	14.343	-0.503	1226150.391	6.265	12.935	4.203	1224882.812	-8.528	15.180	1.026	1226073.242	3.996	11.563	-0.154	1225488.281	-2.532	9.470	1.381	0.000	0.000
1224942.383	-0.928	4.375	-0.812	1225208.008	-2.462	15.525	-0.346	1226169.922	5.722	12.440	4.526	1224902.344	-6.165	11.524	2.691	1226092.773	1.903	7.447	0.697	1225507.812	-1.629	6.053	3.045	0.000	0.000
1224961.914	-1.113	3.066	0.684	1225227.539	0.346	14.453	-0.414	1226189.453	4.801	12.308	4.727	1224921.875	2.176	9.951	6.059	1226112.305	0.394	9.855	2.164	1225527.344	-1.822	5.944	3.187	0.000	0.000
1224981.445	-1.940	4.327	1.956	1225247.070	2.154	9.063	-1.309	1226208.984	4.272	12.926	4.858	1224941.406	3.391	8.858	8.339	1226131.836	2.915	13.004	4.366	1225546.875	0.305	3.997	3.978	0.000	0.000
1225000.977	-1.670	4.176	1.025	1225266.602	0.769	4.734	-1.491	1226228.516	4.072	13.771	5.152	1224960.937	13.445	14.666	-1.659	1226151.367	2.252	6.259	8.891	1225566.406	2.218	5.385	3.575	0.000	0.000
1225020.508	-1.795	5.251	0.481	1225286.133	-0.615	2.830	-0.747	1226248.047	3.407	14.083	5.879	1224980.469	8.171	15.109	-2.132	1226170.898	7.066	9.859	-2.364	1225585.937	2.305	5.421	2.503	0.000	0.000
1225040.039	-1.601	7.176	-0.065	1225305.664	-2.192	4.131	-0.983	1226267.578	2.324	14.470	5.813	1225000.000	-0.056	8.056	-5.594	1226190.430	2.924	9.408	0.728	1225605.469	1.220	3.803	1.137	0.000	0.000
1225059.570	-2.440	9.553	0.022	1225325.195	-3.000	4.514	-1.622	1226287.109	3.216	14.267	5.665	1225019.531	-0.371	7.473	1.410	1226209.961	3.698	9.022	1.043	1225625.000	-0.163	4.483	0.272	0.000	0.000
1225079.102	-2.754	10.165	0.576	1225344.727	-2.731	2.408	-1.862	1226306.641	2.702	11.819	4.966	1225039.062	-2.922	6.851	3.988	1226229.492	0.622	9.861	2.047	1225644.531	-1.269	5.716	1.913	0.000	0.000
1225098.633	-2.390	10.130	0.970	1225364.258	-3.769	2.435	-1.381	1226326.172	2.628	9.312	3.638	1225058.594	-1.720	6.835	4.910	1226249.023	2.050	9.512	2.358	1225664.062	-2.339	7.172	3.609	0.000	0.000
1225118.164	-1.075	10.489	0.455	1225383.789	-2.538	4.186	-0.024	1226345.703	2.480	7.131	2.988	1225078.125	4.600	9.568	2.343	1226268.555	2.591	9.309	1.225	1225683.594	-3.451	9.516	4.789	0.000	0.000
1225137.695	0.350	12.696	2.951	1225403.320	-1.692	7.493	1.296	1226365.234	2.086	6.056	2.228	1225097.656	6.355	12.260	0.851	1226288.086	3.231	9.259	0.754	1225703.125	-1.747	9.017	4.173	0.000	0.000
1225157.227	-0.562	11.725	3.792	1225422.852	-0.923	11.207	2.609	1226384.766	1.868	5.685	1.899	1225117.187	5.227	8.285	-0.349	1226307.617	3.392	9.473	0.919	1225722.656	-0.522	8.857	4.879	0.000	0.000
1225176.758	0.977	9.587	1.750	1225442.383	1.923	11.102	-1.419	1226404.297	1.663	6.826	2.175	1225136.719	3.155	6.991	0.112	1226327.148	2.288	10.244	1.053	1225742.187	-4.185	12.634	5.878	0.000	0.000
1225196.289	0.775	11.662	1.455	1225461.914	0.500	11.058	-1.028	1226423.828	1.919	6.980	2.181	1225156.250	2.342	7.331	-0.368	1226346.680	2.453	9.659	1.632	1225761.719	-0.822	10.045	6.764	0.000	0.000
1225215.820	-0.055	12.346	2.458	1225481.445	-1.577	12.141	7.786	1226443.359	2.724	7.550	2.282	1225175.781	2.080	7.196	0.316	1226366.211	2.517	9.494	1.237	1225781.250	-2.379	11.394	7.288	0.000	0.000
1225235.352	-0.220	12.575	1.951	1225500.977	-2.769	15.144	-5.344	1226462.891	2.789	8.141	2.553	1225195.312	2.343	7.663	-0.348	1226385.742	2.988	9.817	1.444	1225800.781	-1.935	10.575	6.009	0.000	0.000
1225254.883	-0.791	12.646	0.880	1225520.508	-2.654	13.232	1.352	1226482.422	2.866	7.849	2.338	1225214.844	2.237	6.375	0.575	1226405.273	2.521	10.353	1.096	1225820.312	-1.887	9.982	5.623	0.000	0.000
1225274.414	0.120	12.809	0.039	1225540.039	0.154	13.658	2.288	1226501.953	3.350	7.421	1.645	1225234.375	7.119	5.837	0.389	1226424.805	4.246	11.832	0.398	1225839.844	-2.399	11.431	5.368	0.000	0.000
1225293.945	-0.146	14.652	1.414	1225559.570	-3.231	10.518	1.854	1226521.484	3.274	7.639	1.892	1225253.906	9.388	7.973	0.325	1226444.336	5.435	12.449	1.385	1225859.375	-1.736	11.166	4.708	0.000	0.000
1225313.477	-1.446	14.062	3.438	1225579.102	-2.885	13.812	2.009	1226541.016	2.270	8.313	2.844	1225273.437	4.540	10.596	0.174	1226463.867	4.672	12.704	1.485	1225878.906	-1.013	11.936	4.738	0.000	0.000
1225333.008	-1.594	9.946	0.553	1225598.633	-1.192	10.194	-0.439	1226560.547	1.465	7.888	3.023	1225292.969	0.744	9.935	-2.519	1226483.398	1.716	12.252	3.103	1225898.437	-2.826	14.436	6.608	0.000	0.000
1225352.539	-1.631	7.253	0.859	1225618.164	-0.692	9.765	-1.233	1226580.078	2.558	6.801	2.771	1225312.500	2.422	10.401	-3.914	1226502.930	6.979	15.625	3.060	1225917.969	-1.635	11.609	5.780	0.000	0.000
1225372.070	-1.634	6.753	0.594	1225637.695	-1.231	14.067	0.332	1226599.609	2.586	6.920	2.087	1225332.031	9.243	17.471	-6.452	1226522.461	10.285	17.897	3.548	1225937.500	-0.280	8.262	4.304	0.000	0.000
1225391.602	-0.449	6.765	-0.857	1225657.227	-1.077	18.448	3.531	1226619.141	2.916	6.857	1.652	1225351.562	9.445	19.113	-5.546	1226541.992	12.684	17.017	5.586	1225957.031	-0.488	7.375	3.006	0.000	0.000
1225411.133	0.955	7.471	-0.476	1225676.758	0.769	6.434	2.376	1226638.672	3.331	8.528	2.030	1225371.094	2.803	19.599	-0.516	1226561.523	14.277	13.137	6.145	1225976.562	-0.871	7.416	2.732	0.000	0.000
1225430.664	0.888	8.817	0.752	1225696.289	-0.462	6.990	0.511	1226658.203	3.682	10.224	3.488	1225390.625	-0.255	18.542	5.305	1226581.055	9.890	17.134	4.737	1225996.094	-1.678	7.832	2.284	0.000	0.000
1225450.195	0.525	9.121	0.531	1225715.820	-1.962	5.613	-1.013	1226677.734	5.191	11.388	4.886	1225410.156	-1.659	16.804	7.201	1226600.586	2.330	7.196	3.485	1226015.625	-2.343	8.505	2.741	0.000	0.000
1225469.727	0.761	9.123	0.129	1225735.352	-1.923	5.433	-1.258	1226697.266	6.309	11.912	6.554	1225429.687	0.976	17.815	5.261	1226620.117	0.066	-17.201	-4.879	1226035.156	-2.924	8.733	2.861	0.000	0.000
1225489.258	-0.030	9.154	1.018	1225754.883	-2.385	9.838	0.701	1226716.797	4.856	11.311	4.541	1225449.219	1.385	17.195	3.839	1226639.648	23.606	8.079	2.133	1226054.687	-3.151	8.365	2.907	0.000	0.000
1225508.789	-0.232	8.844	0.765	1225774.414	-2.115	13.109	1.968	1226736.328	6.799	12.204	4.295	1225468.750	-1.538	14.090	3.884	1226659.180	11.900	-1.666	-1.488	1226074.219	-1.911	7.649	2.689	0.000	0.000
1225528.320	-0.155	8.306	0.457	1225793.945	-1.923	8.867	1.094	1226755.859	6.348	12.529	4.289	1225488.281	-1.105	12.103	4.842	1226678.711	7.507	-9.924	-6.709	1226093.750	-1.326	7.532	2.039	0.000	0.000
1225547.852	0.915	8.201	-0.479	1225813.477	-2.885	8.305	-0.432	1226775.391	6.152	10.719	3.320	1225507.812	-0.031	9.270	4.556	1226698.242	10.499	5.688	-1.918	1226113.281	-0.244	7.039	1.988	0.000	0.000
1225567.383	1.442	8.784	0.185	1225833.008	-4.923	7.608	-0.759	1226794.922	6.235	11.475	1.986	1225527.344	0.458	7.308	3.477	1226717.773	8.892	7.407	-2.221	1226132.812	0.259	7.627	1.116	0.000	0.000
1225586.914	2.448	8.640	0.848	1225852.539	-6.500	6.950	-1.228	1226814.453	6.093	9.869	3.107	1225546.875	0.809	6.149	3.946	1226737.305	5.160	10.971	-0.893	1226152.344	1.858	8.352	2.006	0.000	0.000
1225606.445	3.121	8.454	0.112	1225872.070	-5.077	7.276	-2.673	1226833.984	6.621	9.107	2.505	1225566.406	-1.000	5.504	3.869	1226756.836	4.716	12.597	-0.830	1226171.875	2.938	9.415	4.449	0.000	0.000
1225625.977	1.139	8.473	-2.108	1225891.602	-4.538	6.153	-2.099	1226853.516	11.291	8.106	4.611	1225585.937	-1.961	4.900	3.909	1226776.367	6.926	14.537	0.380	1226191.406	0.329	8.960	4.326	0.000	0.000
1225645.508	-1.378	11.140	2.211	1225911.133	-4.231	6.349	-0.769	1226873.047	4.257	6.332	1.281	1225605.469	-1.947	3.341	5.277	1226795.898	5.745	10.843	-0.561	1226210.937	-3.718	8.185	2.037	0.000	0.000
1225665.039	-2.537	13.090	2.320	1225930.664	-5.346	7.068	0.305	1226892.578	0.108	5.634	-0.185	1225625.000	-2.308	2.602	3.848	1226815.430	7.257	13.658	0.170	1226230.469	-4.449	8.711	1.598	0.000	0.000
1225684.570	-4.402	15.071	3.838	1225950.195	-7.346	9.570	-0.727	1226912.109	3.887	4.689	1.789	1225644.531	-1.317	3.122	2.918	1226834.961	7.385	16.821	2.089	1226250.000	-0.237	11.188	4.855	0.000	0.000
1225704.102	-4.788	14.183	5.197	1225969.727	-3.577	9.516	0.113	1226931.641	3.627	4.685	1.717	1225664.062	-1.717	3.419	5.205	1226854.492	4.414	19.888	0.765	1226269.531	-1.135	14.641	10.387	0.000	0.000
1225723.633	-3.004	14.585	3.639	1225989.258	1.692	8.674	-0.388	1226951.172	3.333	4.641	1.835	1225683.594	-0.110	5.942	4.357	1226874.023	1.219	24.385	0.451	1226289.062	5.091	14.949	10.571	0.000	0.000
1225743.164	-1.965	15.519	3.476	1226008.789	1.154	15.727	2.550	1226970.703	3.146	5.111	2.603	1225703.125	5.467	6.002	0.514	1226893.555	-1.437	26.649	-0.387	1226308.594	0.278	13.331	8.823	0.000	0.000
1225762.695	-1.294	15.910	2.568	1226028.320	4.000	15.626	2.022	1226990.234	3.242	6.072	3.014	1225722.656	12.272	8.044	-3.556	1226913.086	1.671	24.210	-4.949	1226328.125	0.231	13.109	6.076	0.000	0.000
1225782.227	-1.942	14.904	1.805	1226047.852	2.615	15.709	1.578	1227009.766	3.983	8.155	3.530	1225742.187	17.346	10.344	-19.264	1226932.617	-25.563	30.419	-8.381	1226347.656	0.082	13.333	5.435	0.000	0.000
1225801.758	-2.467	13.321	1.331	1226067.383	-1.615	14.340	1.500	1227029.297	4.224	9.231	3.831	1225761.719	19.128	10.797	-10.314	1226952.148	-37.320	21.060	-18.979	1226367.187	-1.823	14.611	6.179	0.000	0.000
1225821.289	-2.471	11.360	0.873	1226086.914	-2.538	15.484	1.726	1227048.828	4.942	10.357	3.818	1225781.250	3.172	7.717	1.848	1226971.680	-6.105	29.685	-1.850	1226386.719	-1.811	13.981	5.558	0.000	0.000
1225840.820	-2.391	9.322	0.930	1226106.445	1.308	17.899	3.189	1227068.359	4.516	11.057	3.338	1225800.781	6.646	2.712	6.893	1226991.211	32.994	-14.198	8.395	1226406.250	-1.088	12.048	4.475	0.000	0.000
1225860.352	-1.755	7.598	0.477	1226125.977	-4.192	14.069	2.119	1227087.891	4.800	11.365	2.776	1225820.312	5.681	13.119	6.556	1227010.742	26.215	19.597	14.721	1226425.781	-0.790	9.823	3.749	0.000	0.000
1225879.883	-1.476	6.024	0.356	1226145.508	-1.731	14.773	2.070	1227107.422	4.685	11.729	3.112	1225839.844	18.367	22.695	-13.331	1227030.273	-27.982	16.398	-8.698	1226445.312	-0.001	8.444	3.168	0.000	0.000
1225899.414	-0.999	5.413	0.121	1226165.039	2.269	11.952	0.540	1227126.953	5.942	13.899	3.469	1225859.375	-8.187	6.059	-7.175	1227049.805	12.934	8.009	7.967	1226464.844	0.196	7.776	3.356	0.000	0.000
1225918.945	-1.278	4.910	0.218	1226184.570	-1.308	9.008	-0.421	1227146.484	6.561	12.288	2.883	1225878.906	-16.589	15.167	-1.205	1227069.336	-10.513	10.811	-6.592	1226484.375	0.170	6.813	3.134	0.000	0.000
1225938.477	-0.958	5.029	0.181	1226204.102	-0.769	8.267	-0.392	1227166.016	5.255	10.275	1.576	1225898.437	-12.577	10.165	3.879	1227088.867	6.095	9.728	2.484	1226503.906	-0.018	6.259	3.207	0.000	0.000
1225958.008	-1.479	5.101	0.070	1226223.633	-1.462	7.185	0.007	1227185.547	3.882	10.432	1.614	1225917.969	6.356	6.549	4.816	1227108.398	3.940	8.955	0.152	1226523.437	-0.046	5.519	2.924	0.000	0.000
1225977.539	-1.640	5.330	-0.037	1226243.164	-2.308	6.266	-0.314	1227205.078	3.273	9.020	0.874	1225937.500	7.087	5.736	8.690	1227127.930	2.979	10.315	4.820	1226542.969	0.161	4.998	2.007	0.000	0.000
1225997.070	-1.551	6.254	0.888	1226262.695	-1.308	4.851	0.054	1227224.609	4.041	9.770	1.449	1225957.031	3.809	11.214	4.019	1227147.461	1.772	9.141	0.877	1226562.500	0.579	5.031	2.479	0.000	0.000
1226016.602	-1.538	7.446	2.188	1226282.227	-0.808	3.605	-0.612	1227244.141	5.755	11.355	5.603	1225976.562	1.791	13.102	2.132	1227166.992	4.161	9.096	1.043	1226582.031	1.603	6.132	2.846	0.000	0.000
1226036.133	-2.097	8.287	2.275	1226301.758	-0.577	3.663	-1.680	1227263.672	0.969	16.317	3.584	1225996.094	6.763	8.118	3.256	1227186.523	3.205	9.086	1.244	1226601.562	1.660	6.909	3.978	0.000	0.000
1226055.664	-2.330	9.977	3.002	1226321.289	0.808	4.120	-2.308	1227283.203	2.820	19.550	6.235	1226015.625	7.667	7.851	1.356	1227206.055	2.672	8.963	1.473	1226621.094	2.487	7.642	5.239	0.000	0.000
1226075.195	-2.133	12.402	2.681	1226340.820	0.808	5.126	-2.612	1227302.734	2.021	19.192	7.111	1226035.156	5.237	9.107	0.662	1227225.586	3.234	9.677	2.010	1226640.625	1.643	7.058	5.527	0.000	0.000
1226094.727	-2.432	13.976	0.843	1226360.352	0.423	7.106	-1.615	1227322.266	0.279	14.402	4.849	1226054.687	1.574	9.285	-0.328	1227245.117	3.032	9.467	1.768	1226660.156	0.562	8.439	4.640	0.000	0.000
1226114.258	-2.317	15.092	0.298	1226379.883	-0.923	8.024	-1.184	1227341.797	0.075	10.857	3.335	1226074.219	1.414	9.376	-0.937	1227264.648	3.466	9.335	2.179	1226679.687	-2.369	9.839	3.987	0.000	0.000
1226133.789	-0.491	15.572	-1.056	1226399.414	-2.269	9.795	-0.877	1227361.328	-0.115	9.225	3.225	1226093.750	3.458	9.711	-0.340	1227284.180	2.754	8.466	1.788	1226699.219	-2.769	11.324	4.007	0.000	0.000
1226153.320	-0.440	14.919	4.030	1226418.945	-4.154	12.213	2.317	1227380.859	-0.622	8.368	2.675	1226113.281	4.426	9.812	0.320	1227303.711	2.793	9.181	1.561	1226718.750	0.207	11.479	2.462	0.000	0.000
1226172.852	-0.349	10.804	1.064	1226438.477	-2.192	15.092	0.971	1227400.391	-0.458	7.339	2.254	1226132.812	4.452	8.553	-0.910	1227323.242	2.773	9.025	0.975	1226738.281	-0.886	12.713	6.641	0.000	0.000
1226192.383	0.641	8.737	0.110	1226458.008	-0.231	16.164	-4.481	1227419.922	-0.077	6.573	1.769	1226152.344	5.792	6.105	-1.557	1227342.773	3.368	9.071	1.549	1226757.812	-2.121	13.355	6.431	0.000	0.000
1226211.914	1.443	8.899	4.271	1226477.539	-1.192	13.256	-5.386	1227439.453	0.641	6.101	2.260	1226171.875	7.678	5.455	-1.480	1227362.305	2.195	9.254	0.841	1226777.344	-3.521	10.183	7.296	0.000	0.000
1226231.445	2.269	7.100	2.892	1226497.070	-0.923	14.477	2.063	1227458.984	1.434	5.449	2.430	1226191.406	9.027	6.420	-1.115	1227381.836	3.338	9.584	1.657	1226796.875	-3.860	9.520	7.243	0.000	0.000
1226250.977	1.060	6.549	1.957	1226516.602	-5.346	13.590	0.134	1227478.516	1.635	4.783	2.725	1226210.937	8.791	6.620	-1.680	1227401.367	3.989	9.562	2.842	1226816.406	-2.860	7.325	5.648	0.000	0.000
1226270.508	-0.651	8.417	2.907	1226536.133	1.038	11.655	6.145	1227498.047	1.827	4.308	2.457	1226230.469	4.162	6.615	-3.065	1227420.898	2.591	10.074	2.232	1226835.937	-0.916	5.676	5.110	0.000	0.000
1226290.039	-1.458	11.408	2.185	1226555.664	6.231	13.628	1.946	1227517.578	1.466	4.038	2.792	1226250.000	1.285	5.857	-2.225	1227440.430	3.576	10.013	0.488	1226855.469	1.806	7.500	4.215	0.000	0.000
1226309.570	-1.288	13.449	3.205	1226575.195	-1.500	11.892	3.537	1227537.109	0.954	3.695	2.816	1226269.531	-0.295	3.884	1.310	1227459.961	1.377	8.103	0.896	1226875.000	0.299	10.108	6.175	0.000	0.000
1226329.102	-0.686	12.032	3.448	1226594.727	-0.192	5.326	-1.462	1227556.641	1.031	3.512	2.725	1226289.062	0.023	3.932	2.274	1227479.492	2.356	8.536	2.604	1226894.531	-0.765	11.008	7.794	0.000	0.000
1226348.633	-0.542	9.918	1.821	1226614.258	0.346	1.308	-0.581	1227576.172	0.628	3.209	2.597	1226308.594	1.274	5.443	0.480	1227499.023	2.155	10.746	2.854	1226914.062	-2.145	10.503	7.885	0.000	0.000
1226368.164	0.026	8.423	2.621	1226633.789	-0.500	5.555	1.896	1227595.703	0.731	3.437	2.226	1226328.125	2.167	7.241	1.319	1227518.555	2.454	9.657	1.670	1226933.594	-2.607	8.396	6.113	0.000	0.000
1226387.695	0.897	6.971	1.740	1226653.320	-0.346	16.549	4.009	1227615.234	0.695	3.508	2.424	1226347.656	2.700	6.856	0.758	1227538.086	2.655	10.849	1.547	1226953.125	-1.595	7.831	5.516	0.000	0.000
1226407.227	0.854	7.124	1.388	1226672.852	0.154	14.938	3.121	1227634.766	1.034	3.255	2.476	1226367.187	4.909	5.423	-1.367	1227557.617	3.702	8.838	2.493	1226972.656	-1.446	7.829	5.981	0.000	0.000
1226426.758	0.538	7.428	1.846	1226692.383	1.769	7.108	1.989	1227654.297	0.731	3.618	2.585	1226386.719	6.592	7.358	-2.328	1227577.148	7.101	12.843	1.661	1226992.187	-1.059	7.899	5.724	0.000	0.000
1226446.289	0.224	7.618	2.379	1226711.914	-0.615	9.314	2.810	1227673.828	0.839	3.842	2.675	1226406.250	4.965	9.785	-3.528	1227596.680	5.375	14.955	2.382	1227011.719	-1.170	7.975	5.227	0.000	0.000
1226465.820	0.336	7.657	1.580	1226731.445	-1.115	8.509	2.351	1227693.359	0.871	4.211	2.893	1226425.781	9.747	14.908	-6.029	1227616.211	11.642	19.338	2.121	1227031.250	-1.733	7.462	4.257	0.000	0.000
1226485.352	0.058	7.654	1.822	1226750.977	-0.192	9.275	2.930	1227712.891	0.342	4.683	2.782	1226445.312	10.483	23.086	-5.538	1227635.742	13.033	18.649	2.566	1227050.781	-2.496	7.173	3.991	0.000	0.000
1226504.883	-0.298	7.343	2.210	1226770.508	-0.385	9.512	2.176	1227732.422	1.083	7.238	4.293	1226464.844	4.432	23.838	-2.993	1227655.273	13.590	13.899	3.506	1227070.312	-2.368	6.764	3.080	0.000	0.000
1226524.414	-0.372	7.150	2.761	1226790.039	-1.538	8.927	1.799	1227751.953	1.204	11.080	5.559	1226484.375	1.874	23.159	2.736	1227674.805	10.894	10.636	0.606	1227089.844	-1.976	6.168	3.008	0.000	0.000
1226543.945	-0.533	6.572	2.654	1226809.570	-2.346	8.522	1.673	1227771.484	1.769	17.073	7.390	1226503.906	-0.424	18.915	7.635	1227694.336	11.508	13.504	4.734	1227109.375	-1.483	6.348	3.492	0.000	0.000
1226563.477	-0.498	6.149	2.192	1226829.102	-3.346	7.206	0.817	1227791.016	5.129	24.556	10.193	1226523.437	-0.474	14.393	6.479	1227713.867	4.395	-13.004	0.830	1227128.906	-0.516	5.894	3.441	0.000	0.000
1226583.008	-0.621	6.725	1.942	1226848.633	-3.308	7.064	0.499	1227810.547	10.405	29.509	14.319	1226542.969	0.817	12.014	4.759	1227733.398	2.260	-12.369	-0.034	1227148.437	-1.355	5.421	3.160	0.000	0.000
1226602.539	-1.382	7.178	1.813	1226868.164	-3.231	6.724	0.819	1227830.078	13.175	26.049	10.329	1226562.500	0.317	10.415	4.779	1227752.930	19.327	-0.387	8.476	1227167.969	-2.187	5.577	1.577	0.000	0.000
1226622.070	-0.470	8.265	1.018	1226887.695	-2.923	7.945	-0.961	1227849.609	14.525	19.923	7.143	1226582.031	-0.528	9.663	4.887	1227772.461	7.948	-5.475	1.361	1227187.500	-0.521	5.190	0.776	0.000	0.000
1226641.602	0.812	8.354	1.250	1226907.227	-3.154	6.824	-0.479	1227869.141	11.726	12.845	5.665	1226601.562	-0.755	6.650	5.245	1227791.992	5.392	-4.064	-0.952	1227207.031	0.057	4.814	0.992	0.000	0.000
1226661.133	1.441	8.553	0.093	1226926.758	-4.038	6.007	-0.331	1227888.672	5.753	6.855	3.826	1226621.094	-1.061	4.455	5.460	1227811.523	6.288	2.265	-0.119	1227226.562	-0.233	6.002	1.877	0.000	0.000
1226680.664	2.311	8.792	-0.863	1226946.289	-2.962	4.737	-1.642	1227908.203	2.104	4.877	1.684	1226640.625	-0.751	2.525	5.690	1227831.055	5.651	4.121	-0.194	1227246.094	-0.788	7.193	2.372	0.000	0.000
1226700.195	2.803	8.720	0.288	1226965.820	-2.154	4.081	-2.217	1227927.734	0.047	7.217	0.581	1226660.156	0.865	1.762	5.760	1227850.586	3.819	2.570	-1.769	1227265.625	-0.567	7.672	2.910	0.000	0.000
1226719.727	2.282	7.215	0.218	1226985.352	-2.077	3.364	-1.542	1227947.266	-1.976	8.325	0.545	1226679.687	-3.517	2.601	5.964	1227870.117	0.756	11.228	-1.603	1227285.156	-0.720	7.378	3.040	0.000	0.000
1226739.258	0.590	10.621	3.005	1227004.883	-4.846	8.008	-0.418	1227966.797	-2.432	7.820	-1.673	1226699.219	-3.485	1.842	5.341	1227889.648	-1.650	16.542	1.009	1227304.687	-1.447	7.385	2.719	0.000	0.000
1226758.789	0.067	11.462	2.732	1227024.414	-5.731	7.788	-0.530	1227986.328	-1.874	5.141	-3.026	1226718.750	0.352	0.316	4.404	1227909.180	-4.440	14.398	-2.784	1227324.219	-2.192	6.985	4.522	0.000	0.000
1226778.320	-2.620	14.705	2.041	1227043.945	-4.692	6.189	-0.176	1228005.859	-1.174	3.271	-3.478	1226738.281	3.948	0.928	2.479	1227928.711	-3.833	25.586	0.881	1227343.750	2.876	12.786	7.337	0.000	0.000
1226797.852	-3.645	17.348	3.504	1227063.477	-3.615	6.516	0.141	1228025.391	3.389	4.151	-0.931	1226757.812	9.337	3.379	-0.874	1227948.242	-11.941	21.437	-1.325	1227363.281	1.929	14.536	7.979	0.000	0.000
1226817.383	-2.970	16.086	2.994	1227083.008	-0.731	6.736	0.255	1228044.922	5.372	3.808	0.351	1226777.344	11.087	10.571	-6.712	1227967.773	-21.794	11.605	-4.701	1227382.812	0.190	16.035	11.165	0.000	0.000
1226836.914	-1.871	16.174	0.947	1227102.539	0.077	11.600	1.506	1228064.453	4.668	2.232	0.909	1226796.875	10.311	18.699	-11.224	1227987.305	-21.712	12.270	4.223	1227402.344	0.454	15.033	8.831	0.000	0.000
1226856.445	-0.708	15.993	1.207	1227122.070	-1.385	16.860	3.283	1228083.984	5.247	1.277	1.292	1226816.406	4.460	9.771	-15.568	1228006.836	-32.096	4.733	1.643	1227421.875	0.205	14.479	7.325	0.000	0.000
1226875.977	-0.708	14.608	1.217	1227141.602	0.231	17.116	1.605	1228103.516	6.387	1.888	1.774	1226835.937	1.366	9.337	-9.555	1228026.367	-25.936	0.848	-5.844	1227441.406	-0.833	15.601	6.114	0.000	0.000
1226895.508	-1.073	12.720	0.727	1227161.133	-0.423	18.469	0.623	1228123.047	8.862	4.593	2.837	1226855.469	9.118	5.031	-18.967	1228045.898	-0.990	49.475	17.171	1227460.937	-1.059	15.344	5.899	0.000	0.000
1226915.039	-0.913	10.760	0.667	1227180.664	-3.115	17.673	-0.341	1228142.578	11.354	8.336	3.895	1226875.000	10.198	5.483	8.291	1228065.430	-5.222	-15.867	-3.400	1227480.469	-0.975	14.269	6.325	0.000	0.000
1226934.570	-0.758	8.531	0.234	1227200.195	-4.038	16.650	-1.018	1228162.109	13.095	12.618	5.121	1226894.531	-1.395	13.007	6.704	1228084.961	40.453	28.622	26.082	1227500.000	-0.692	13.192	5.987	0.000	0.000
1226954.102	-0.808	7.223	-0.791	1227219.727	-5.192	15.393	0.705	1228181.641	11.511	18.461	6.562	1226914.062	-2.638	13.226	-2.245	1228104.492	-26.666	2.487	-3.815	1227519.531	-0.537	11.005	4.260	0.000	0.000
1226973.633	-0.366	6.150	-0.569	1227239.258	-3.808	14.695	0.446	1228201.172	4.496	20.190	8.477	1226933.594	-3.466	18.239	-0.483	1228124.023	16.533	12.223	-2.970	1227539.062	-0.228	8.336	2.925	0.000	0.000
1226993.164	-0.352	4.573	0.752	1227258.789	-1.654	11.889	1.841	1228220.703	-4.447	20.141	6.653	1226953.125	-0.357	17.029	-1.094	1228143.555	6.530	16.808	3.097	1227558.594	-0.013	6.519	2.456	0.000	0.000
1227012.695	-0.344	2.689	1.578	1227278.320	-0.731	8.773	-1.620	1228240.234	-9.041	20.596	7.469	1226972.656	11.272	14.998	-3.600	1228163.086	6.390	7.290	1.604	1227578.125	0.578	4.883	2.738	0.000	0.000
1227032.227	0.022	1.462	2.233	1227297.852	-1.269	7.007	-0.349	1228259.766	-10.559	21.292	8.932	1226992.187	5.253	14.543	2.180	1228182.617	4.325	11.527	0.571	1227597.656	0.173	3.517	2.211	0.000	0.000
1227051.758	-0.098	1.461	2.194	1227317.383	-0.385	5.013	-0.645	1228279.297	-11.744	23.774	10.207	1227011.719	3.433	8.814	4.875	1228202.148	2.544	9.099	0.982	1227617.187	-0.519	3.079	2.667	0.000	0.000
1227071.289	-0.264	2.536	1.609	1227336.914	0.231	2.912	-1.147	1228298.828	-10.930	23.718	10.033	1227031.250	3.765	10.450	7.242	1228221.680	2.432	10.308	1.979	1227636.719	-0.357	2.485	2.475	0.000	0.000
1227090.820	-0.342	4.650	1.756	1227356.445	0.423	2.736	-1.619	1228318.359	-5.922	19.778	10.349	1227050.781	1.891	10.362	8.314	1228241.211	1.028	9.136	1.730	1227656.250	0.302	2.627	1.767	0.000	0.000
1227110.352	-0.057	7.423	2.332	1227375.977	-0.077	4.516	-1.717	1228337.891	-0.911	15.690	10.693	1227070.312	-0.198	9.156	7.088	1228260.742	2.464	8.775	2.271	1227675.781	0.996	3.138	1.086	0.000	0.000
1227129.883	-0.460	9.149	2.022	1227395.508	-1.346	3.855	-1.988	1228357.422	5.506	12.538	12.729	1227089.844	2.065	9.608	2.653	1228280.273	1.745	9.772	2.338	1227695.312	1.363	4.209	1.783	0.000	0.000
1227149.414	-0.657	10.493	2.291	1227415.039	-2.077	1.706	-1.982	1228376.953	7.784	10.858	11.258	1227109.375	2.997	8.409	-0.303	1228299.805	2.035	10.065	1.660	1227714.844	0.035	5.037	2.969	0.000	0.000
1227168.945	-1.385	11.255	1.497	1227434.570	-2.731	1.856	-2.060	1228396.484	5.512	9.882	8.043	1227128.906	5.664	8.068	-2.862	1228319.336	3.490	9.313	0.408	1227734.375	-1.950	6.723	3.701	0.000	0.000
1227188.477	-0.861	11.568	1.867	1227454.102	-3.077	4.644	-0.728	1228416.016	3.929	8.171	5.570	1227148.437	8.304	7.433	-4.246	1228338.867	3.319	9.428	1.071	1227753.906	-3.182	9.365	5.015	0.000	0.000
1227208.008	0.168	14.194	4.828	1227473.633	-4.154	6.628	3.793	1228435.547	3.401	5.664	3.328	1227167.969	9.336	6.314	-4.890	1228358.398	3.508	9.282	1.022	1227773.437	-1.657	10.276	5.455	0.000	0.000
1227227.539	0.928	9.625	0.792	1227493.164	-1.962	13.014	4.848	1228455.078	3.149	4.745	2.154	1227187.500	9.587	5.889	-6.685	1228377.930	4.354	9.105	2.349	1227792.969	-4.800	11.270	7.231	0.000	0.000
1227247.070	1.369	11.706	4.852	1227512.695	3.154	14.867	-0.748	1228474.609	3.195	4.265	2.119	1227207.031	8.080	4.632	-3.568	1228397.461	3.092	9.346	1.222	1227812.500	-4.844	10.011	8.989	0.000	0.000
1227266.602	0.314	15.195	3.437	1227532.227	3.077	14.442	-1.706	1228494.141	2.011	4.241	2.141	1227226.562	6.140	3.697	-1.432	1228416.992	2.696	9.290	0.877	1227832.031	0.667	7.882	6.142	0.000	0.000
1227286.133	0.594	17.660	3.397	1227551.758	5.385	15.397	2.378	1228513.672	0.863	4.146	1.965	1227246.094	4.073	3.866	-0.345	1228436.523	4.154	9.634	0.652	1227851.562	-4.729	11.899	7.161	0.000	0.000
1227305.664	-0.237	18.305	4.318	1227571.289	-1.731	9.443	3.759	1228533.203	-0.137	3.835	1.425	1227265.625	1.738	6.997	0.689	1228456.055	3.580	10.921	1.581	1227871.094	-6.527	14.287	7.639	0.000	0.000
1227325.195	-1.044	15.720	3.556	1227590.820	0.115	8.702	0.083	1228552.734	-1.026	3.527	0.767	1227285.156	3.530	6.580	-0.874	1228475.586	4.023	11.790	1.975	1227890.625	-4.000	14.373	8.734	0.000	0.000
1227344.727	-0.978	13.490	2.164	1227610.352	-5.000	13.460	2.938	1228572.266	-1.974	2.841	0.854	1227304.687	4.873	7.158	-1.186	1228495.117	5.743	12.233	2.753	1227910.156	-4.930	16.420	7.397	0.000	0.000
1227364.258	-1.091	12.797	2.851	1227629.883	-6.654	22.264	5.302	1228591.797	-2.670	2.311	0.600	1227324.219	4.603	8.343	-1.269	1228514.648	5.592	13.284	2.472	1227929.687	-0.994	13.454	5.191	0.000	0.000
1227383.789	-0.469	11.418	1.096	1227649.414	0.846	18.211	2.435	1228611.328	-3.291	1.637	0.103	1227343.750	1.732	9.533	0.110	1228534.180	4.962	12.253	2.339	1227949.219	0.644	12.364	3.994	0.000	0.000
1227403.320	0.568	9.852	0.807	1227668.945	1.885	16.420	1.197	1228630.859	-3.417	0.233	-0.454	1227363.281	4.824	12.374	-2.219	1228553.711	6.032	13.282	1.775	1227968.750	0.182	12.109	4.313	0.000	0.000
1227422.852	0.886	8.932	0.598	1227688.477	-1.462	9.855	-0.164	1228650.391	-2.849	-0.167	-0.070	1227382.812	8.410	18.275	-5.134	1228573.242	9.036	14.905	2.650	1227988.281	-0.497	10.709	4.394	0.000	0.000
1227442.383	1.245	7.666	0.531	1227708.008	-3.077	9.362	-1.428	1228669.922	-2.400	-0.345	0.024	1227402.344	7.422	21.342	-3.989	1228592.773	10.051	15.116	4.345	1228007.812	-0.901	9.305	3.903	0.000	0.000
1227461.914	1.533	6.400	1.265	1227727.539	-5.000	11.054	-0.869	1228689.453	-1.747	0.807	0.976	1227421.875	2.024	20.101	-1.448	1228612.305	9.081	11.628	5.222	1228027.344	-1.310	8.124	3.658	0.000	0.000
1227481.445	1.207	5.051	0.680	1227747.070	-5.385	10.178	0.360	1228708.984	-0.143	2.933	2.708	1227441.406	0.839	18.174	3.129	1228631.836	8.697	17.410	5.881	1228046.875	-1.948	6.501	3.724	0.000	0.000
1227500.977	0.897	4.047	1.673	1227766.602	-3.192	7.414	1.529	1228728.516	2.770	4.891	5.325	1227460.937	0.398	13.958	5.222	1228651.367	-1.330	3.629	4.462	1228066.406	-2.413	5.913	4.635	0.000	0.000
1227520.508	0.583	3.352	2.322	1227786.133	-1.808	6.254	2.118	1228748.047	5.828	7.145	8.230	1227480.469	0.791	11.715	6.049	1228670.898	14.577	-26.865	-6.411	1228085.937	-2.635	5.137	4.538	0.000	0.000
1227540.039	-0.058	3.499	2.176	1227805.664	-2.269	6.263	1.648	1228767.578	11.266	9.619	8.756	1227500.000	4.533	12.762	3.266	1228690.430	8.717	2.345	6.438	1228105.469	-2.471	4.025	4.578	0.000	0.000
1227559.570	-0.342	4.150	1.771	1227825.195	-1.154	10.035	1.934	1228787.109	14.937	14.370	11.361	1227519.531	2.806	10.549	3.633	1228709.961	17.567	-5.708	1.559	1228125.000	-2.911	4.029	2.455	0.000	0.000
1227579.102	0.339	5.580	1.876	1227844.727	-0.269	8.776	1.927	1228806.641	13.378	12.964	8.178	1227539.062	0.583	8.835	4.453	1228729.492	7.755	-5.335	0.025	1228144.531	-1.459	3.385	0.208	0.000	0.000
1227598.633	1.498	7.169	1.823	1227864.258	-0.846	7.795	0.991	1228826.172	6.444	13.235	4.182	1227558.594	0.224	6.278	3.146	1228749.023	7.285	1.264	1.388	1228164.062	1.186	3.544	0.926	0.000	0.000
1227618.164	1.968	7.750	0.808	1227883.789	-0.538	5.736	0.256	1228845.703	2.803	17.206	3.571	1227578.125	-0.860	3.953	2.506	1228768.555	7.305	5.571	1.915	1228183.594	2.799	5.120	3.414	0.000	0.000
1227637.695	1.487	7.361	0.673	1227903.320	-1.423	3.235	-0.616	1228865.234	3.686	20.315	5.502	1227597.656	-1.400	1.510	2.283	1228788.086	6.372	5.653	0.275	1228203.125	1.146	7.433	4.928	0.000	0.000
1227657.227	-0.736	6.300	2.442	1227922.852	-1.231	3.700	-1.652	1228884.766	6.195	19.865	7.382	1227617.187	-1.351	1.220	3.342	1228807.617	3.689	6.758	-1.093	1228222.656	0.916	7.806	4.449	0.000	0.000
1227676.758	-2.322	7.938	3.820	1227942.383	-1.885	2.705	-0.052	1228904.297	8.738	17.277	8.342	1227636.719	-2.342	1.774	4.299	1228827.148	1.599	9.399	0.163	1228242.187	-0.994	6.603	4.288	0.000	0.000
1227696.289	-0.215	12.382	2.501	1227961.914	-4.692	5.315	2.793	1228923.828	8.449	13.124	8.173	1227656.250	-1.262	3.071	4.607	1228846.680	-0.009	16.478	-0.665	1228261.719	-3.375	6.182	4.404	0.000	0.000
1227715.820	-1.123	16.181	3.700	1227981.445	-6.346	6.695	2.293	1228943.359	7.228	8.415	6.329	1227675.781	0.349	3.658	4.104	1228866.211	-2.042	17.749	-0.915	1228281.250	-1.040	10.529	4.985	0.000	0.000
1227735.352	-2.546	17.051	5.358	1228000.977	-3.269	7.220	0.089	1228962.891	6.814	6.016	4.593	1227695.312	2.651	4.291	3.527	1228885.742	-5.470	20.140	-0.583	1228300.781	-1.332	11.458	6.352	0.000	0.000
1227754.883	-0.801	15.261	3.891	1228020.508	0.308	7.755	-0.720	1228982.422	5.325	5.487	2.701	1227714.844	7.490	7.213	2.817	1228905.273	-9.636	20.274	-1.033	1228320.312	1.635	12.243	8.851	0.000	0.000
1227774.414	-0.216	14.767	2.381	1228040.039	1.077	11.666	0.032	1229001.953	5.192	6.232	1.986	1227734.375	14.431	10.602	0.790	1228924.805	-19.128	22.530	-0.226	1228339.844	0.899	13.880	7.797	0.000	0.000
1227793.945	-0.110	15.960	0.959	1228059.570	-1.038	15.770	2.241	1229021.484	5.477	6.830	2.061	1227753.906	21.706	13.629	-6.336	1228944.336	-27.671	25.202	-2.557	1228359.375	-1.010	14.010	6.191	0.000	0.000
1227813.477	0.411	17.119	1.092	1228079.102	-2.385	15.727	2.518	1229041.016	5.399	6.613	1.316	1227773.437	13.198	8.769	-22.474	1228963.867	-30.960	7.622	9.036	1228378.906	-2.197	14.652	5.059	0.000	0.000
1227833.008	1.852	14.942	1.169	1228098.633	-1.731	14.749	1.453	1229060.547	4.803	6.606	0.905	1227792.969	2.213	9.867	-13.331	1228983.398	-42.388	-9.820	-5.819	1228398.437	-2.235	14.652	5.019	0.000	0.000
1227852.539	1.048	12.126	0.756	1228118.164	-3.962	12.988	-1.233	1229080.078	4.882	6.420	1.083	1227812.500	-3.117	7.537	-7.817	1229002.930	-8.385	7.496	-2.505	1228417.969	-2.200	14.800	5.223	0.000	0.000
1227872.070	0.368	9.311	0.822	1228137.695	-6.577	14.800	-1.101	1229099.609	5.671	6.170	1.703	1227832.031	1.568	1.965	2.926	1229022.461	38.566	69.774	43.032	1228437.500	-2.343	13.246	5.650	0.000	0.000
1227891.602	-0.909	6.722	1.145	1228157.227	-6.154	15.847	-1.586	1229119.141	6.738	6.925	2.465	1227851.562	19.992	8.656	10.712	1229041.992	-46.848	-24.019	-29.242	1228457.031	-2.468	11.025	4.992	0.000	0.000
1227911.133	-2.349	5.823	1.115	1228176.758	-2.000	15.073	0.050	1229138.672	6.756	8.106	2.894	1227871.094	6.219	8.266	14.188	1229061.523	65.499	21.653	15.836	1228476.562	-1.900	9.241	3.840	0.000	0.000
1227930.664	-2.084	5.556	-0.421	1228196.289	-1.077	15.000	0.025	1229158.203	7.370	10.820	3.110	1227890.625	3.833	12.772	6.420	1229081.055	-34.289	11.148	0.743	1228496.094	-0.191	7.817	3.543	0.000	0.000
1227950.195	-1.995	4.711	0.535	1228215.820	-0.423	13.071	0.153	1229177.734	7.044	12.549	3.622	1227910.156	2.043	20.949	-14.897	1229100.586	30.647	20.877	6.908	1228515.625	-0.102	6.816	3.398	0.000	0.000
1227969.727	-1.946	5.865	1.433	1228235.352	0.192	9.596	-0.190	1229197.266	6.249	13.422	3.622	1227929.687	6.893	24.826	-3.010	1229120.117	6.004	12.720	-9.220	1228535.156	0.714	5.585	3.751	0.000	0.000
1227989.258	-1.316	5.987	0.353	1228254.883	-1.077	5.480	-1.775	1229216.797	4.107	15.444	4.576	1227949.219	-4.156	7.591	3.609	1229139.648	0.764	9.688	-3.388	1228554.687	0.259	5.812	2.912	0.000	0.000
1228008.789	-1.034	6.797	0.550	1228274.414	-2.462	3.440	-1.620	1229236.328	2.014	22.248	5.171	1227968.750	-4.390	5.706	7.112	1229159.180	-0.247	10.457	4.938	1228574.219	0.418	5.848	2.341	0.000	0.000
1228028.320	-1.559	7.715	0.081	1228293.945	-3.654	3.144	-1.668	1229255.859	-1.633	26.333	7.914	1227988.281	3.864	6.126	9.444	1229178.711	3.319	9.201	1.173	1228593.750	0.115	5.925	1.763	0.000	0.000
1228047.852	-0.842	8.261	-0.179	1228313.477	-1.654	3.280	-1.040	1229275.391	-3.549	19.641	6.600	1228007.812	-0.011	17.839	6.609	1229198.242	2.207	9.261	-0.043	1228613.281	0.269	6.108	1.587	0.000	0.000
1228067.383	-0.561	8.687	-0.120	1228333.008	-1.538	3.773	-1.614	1229294.922	-0.299	16.046	5.937	1228027.344	-4.761	17.705	0.832	1229217.773	3.049	9.042	-0.103	1228632.812	0.461	6.032	1.739	0.000	0.000
1228086.914	-0.359	8.689	0.078	1228352.539	-1.538	3.600	-2.243	1229314.453	4.311	16.701	5.198	1228046.875	-3.955	11.978	0.642	1229237.305	2.654	8.983	-0.411	1228652.344	-0.884	6.231	1.380	0.000	0.000
1228106.445	-0.552	8.879	0.769	1228372.070	-1.308	4.345	-2.448	1229333.984	7.175	18.379	6.066	1228066.406	2.449	11.615	2.543	1229256.836	2.853	9.726	-0.445	1228671.875	-1.465	6.348	1.646	0.000	0.000
1228125.977	-1.239	8.565	0.081	1228391.602	-0.808	5.004	-2.039	1229353.516	6.957	19.060	7.926	1228085.937	5.537	10.834	3.688	1229276.367	3.665	12.149	1.462	1228691.406	-2.285	6.986	2.289	0.000	0.000
1228145.508	-1.283	8.872	-0.304	1228411.133	-0.885	7.539	-2.876	1229373.047	6.580	17.389	7.547	1228105.469	7.034	10.524	3.401	1229295.898	2.362	10.721	3.350	1228710.937	-3.847	8.372	3.240	0.000	0.000
1228165.039	0.374	9.619	1.357	1228430.664	-1.231	10.786	-0.431	1229392.578	4.820	15.884	6.400	1228125.000	8.078	9.518	3.956	1229315.430	2.622	10.774	3.043	1228730.469	-3.674	9.407	4.162	0.000	0.000
1228184.570	0.717	11.084	3.667	1228450.195	-2.154	12.025	6.150	1229412.109	4.825	13.374	5.570	1228144.531	7.877	6.765	3.060	1229334.961	2.283	9.848	2.299	1228750.000	0.626	9.216	5.081	0.000	0.000
1228204.102	0.457	9.351	1.703	1228469.727	-0.231	8.198	-0.656	1229431.641	3.786	10.887	4.071	1228164.062	4.593	6.996	1.651	1229354.492	0.881	7.608	1.178	1228769.531	-1.069	11.048	7.367	0.000	0.000
1228223.633	0.777	11.008	1.663	1228489.258	-1.577	13.092	-4.600	1229451.172	1.998	9.009	3.052	1228183.594	0.325	7.617	1.765	1229374.023	2.364	8.324	1.668	1228789.062	0.993	9.360	6.714	0.000	0.000
1228243.164	1.209	14.358	0.866	1228508.789	-2.577	11.324	0.470	1229470.703	0.652	7.326	2.077	1228203.125	1.462	8.604	0.093	1229393.555	-0.165	10.164	2.650	1228808.594	0.112	7.814	4.088	0.000	0.000
1228262.695	-1.665	20.714	5.492	1228528.320	-0.308	10.712	-0.418	1229490.234	-0.474	5.684	1.023	1228222.656	1.463	8.528	0.166	1229413.086	0.250	8.633	2.900	1228828.125	-4.403	10.859	6.326	0.000	0.000
1228282.227	-2.710	16.281	5.001	1228547.852	-3.231	12.252	0.339	1229509.766	-0.750	4.243	0.158	1228242.187	1.657	7.303	0.323	1229432.617	0.306	9.508	3.183	1228847.656	-10.808	18.034	12.777	0.000	0.000
1228301.758	-1.156	11.604	0.352	1228567.383	4.154	14.168	-1.014	1229529.297	-1.514	3.342	-0.236	1228261.719	2.777	6.931	0.762	1229452.148	-0.538	8.212	2.421	1228867.187	-4.590	12.824	7.690	0.000	0.000
1228321.289	-1.142	13.566	1.850	1228586.914	0.462	7.389	2.754	1229548.828	-2.127	2.480	-0.361	1228281.250	2.554	7.015	1.575	1229471.680	-0.020	9.926	3.711	1228886.719	2.909	10.156	6.654	0.000	0.000
1228340.820	-0.638	14.032	0.188	1228606.445	-2.654	31.040	7.276	1229568.359	-1.331	1.605	-0.246	1228300.781	2.481	8.559	1.937	1229491.211	-0.027	9.636	3.578	1228906.250	2.842	12.935	2.885	0.000	0.000
1228360.352	0.195	13.040	-0.510	1228625.977	-0.885	15.388	2.829	1229587.891	-0.729	1.063	-0.373	1228320.312	3.768	6.890	3.683	1229510.742	0.539	9.606	1.956	1228925.781	0.140	12.999	3.797	0.000	0.000
1228379.883	0.411	11.735	1.143	1228645.508	0.692	0.149	-3.743	1229607.422	0.750	1.240	-0.313	1228339.844	6.769	7.693	3.846	1229530.273	0.706	9.923	2.281	1228945.312	-0.330	12.855	4.778	0.000	0.000
1228399.414	-0.485	10.111	-0.490	1228665.039	-3.154	6.689	-4.797	1229626.953	1.560	1.551	-0.153	1228359.375	7.086	9.821	0.935	1229549.805	0.659	11.550	5.302	1228964.844	-3.269	13.292	5.904	0.000	0.000
1228418.945	-0.712	10.108	0.753	1228684.570	-6.038	14.240	0.942	1229646.484	2.692	2.715	0.559	1228378.906	3.020	10.753	-1.855	1229569.336	1.272	11.328	5.282	1228984.375	-4.937	11.494	5.283	0.000	0.000
1228438.477	-1.308	9.256	1.236	1228704.102	-2.692	19.932	5.271	1229666.016	4.278	3.297	1.107	1228398.437	3.103	11.400	-1.201	1229588.867	3.202	12.690	2.499	1229003.906	-4.529	10.527	3.916	0.000	0.000
1228458.008	-0.952	7.914	0.845	1228723.633	3.615	9.236	3.004	1229685.547	5.564	4.131	1.716	1228417.969	11.638	13.947	-5.471	1229608.398	7.111	13.079	0.637	1229023.437	-3.664	9.666	2.873	0.000	0.000
1228477.539	0.173	8.425	1.300	1228743.164	3.423	10.230	3.310	1229705.078	4.948	5.522	2.095	1228437.500	11.328	13.880	-9.513	1229627.930	7.220	14.458	1.218	1229042.969	-2.129	9.466	3.466	0.000	0.000
1228497.070	0.488	8.274	0.769	1228762.695	-5.808	13.127	4.742	1229724.609	5.243	6.219	3.446	1228457.031	6.016	11.317	-6.090	1229647.461	9.513	15.896	2.820	1229062.500	0.017	9.148	4.487	0.000	0.000
1228516.602	0.487	7.620	0.656	1228782.227	-1.500	11.600	3.321	1229744.141	5.916	8.441	4.780	1228476.562	2.371	10.579	2.481	1229666.992	0.148	12.254	0.849	1229082.031	0.691	8.363	3.330	0.000	0.000
1228536.133	0.403	6.466	0.279	1228801.758	-6.192	8.854	1.738	1229763.672	5.338	9.759	5.192	1228496.094	5.089	11.826	5.017	1229686.523	-15.264	10.852	2.958	1229101.562	1.591	7.317	2.775	0.000	0.000
1228555.664	0.434	5.927	-0.628	1228821.289	-6.462	7.386	1.077	1229783.203	4.066	10.000	4.426	1228515.625	4.852	16.322	4.479	1229706.055	-10.773	11.199	6.395	1229121.094	-0.326	6.929	2.632	0.000	0.000
1228575.195	0.115	5.463	-0.488	1228840.820	-5.192	7.056	0.922	1229802.734	2.970	10.908	4.050	1228535.156	1.375	17.038	2.907	1229725.586	-8.310	21.984	14.402	1229140.625	-1.637	6.979	2.879	0.000	0.000
1228594.727	-0.563	6.725	-0.338	1228860.352	-4.500	7.656	0.522	1229822.266	1.694	15.511	4.090	1228554.687	-1.795	16.130	1.237	1229745.117	0.675	13.002	6.620	1229160.156	-2.015	6.539	2.687	0.000	0.000
1228614.258	-1.201	7.565	-0.130	1228879.883	-2.577	8.285	0.573	1229841.797	0.386	20.326	5.184	1228574.219	-4.132	16.819	2.201	1229764.648	-3.598	2.661	11.234	1229179.687	-1.971	6.649	2.003	0.000	0.000
1228633.789	-0.639	8.147	0.134	1228899.414	-2.038	8.364	0.321	1229861.328	2.989	23.454	8.736	1228593.750	-5.975	15.644	2.477	1229784.180	11.446	9.352	4.062	1229199.219	-0.581	6.969	1.168	0.000	0.000
1228653.320	0.761	8.585	0.102	1228918.945	-0.692	7.776	0.108	1229880.859	4.863	22.524	9.172	1228613.281	-4.933	13.273	2.835	1229803.711	7.068	-2.970	-0.595	1229218.750	-0.550	7.154	1.682	0.000	0.000
1228672.852	2.122	10.444	0.181	1228938.477	0.115	7.153	-0.233	1229900.391	6.562	18.931	8.886	1228632.812	-1.464	10.582	3.558	1229823.242	5.184	0.891	0.694	1229238.281	-1.480	7.941	1.603	0.000	0.000
1228692.383	2.192	12.407	-0.802	1228958.008	-0.692	7.577	-1.062	1229919.922	6.599	14.756	7.978	1228652.344	-1.037	8.684	4.021	1229842.773	3.612	0.118	-0.144	1229257.812	-0.164	9.372	3.153	0.000	0.000
1228711.914	0.506	13.620	-1.404	1228977.539	-1.962	8.238	-0.803	1229939.453	5.472	10.719	5.718	1228671.875	-0.108	6.305	4.609	1229862.305	6.737	1.034	-1.428	1229277.344	0.471	10.995	3.394	0.000	0.000
1228731.445	-1.134	17.643	2.613	1228997.070	-2.846	6.872	-1.007	1229958.984	3.959	7.635	3.724	1228691.406	-0.250	5.862	5.736	1229881.836	5.869	1.900	-2.445	1229296.875	-0.887	10.120	1.652	0.000	0.000
1228750.977	0.488	15.120	0.791	1229016.602	-5.538	7.952	0.525	1229978.516	2.867	6.323	3.039	1228710.937	0.291	5.043	6.072	1229901.367	5.720	3.247	-2.709	1229316.406	-1.816	11.055	1.276	0.000	0.000
1228770.508	0.367	12.042	0.718	1229036.133	-5.000	8.577	-1.068	1229998.047	2.913	5.879	3.084	1228730.469	-0.058	4.642	5.740	1229920.898	4.815	6.692	-1.993	1229335.937	1.760	16.094	4.046	0.000	0.000
1228790.039	-2.339	9.169	2.082	1229055.664	-2.308	10.437	-1.480	1230017.578	2.762	6.098	3.179	1228750.000	-0.762	3.745	4.532	1229940.430	4.201	7.905	-1.068	1229355.469	0.361	12.441	9.147	0.000	0.000
1228809.570	-3.329	7.928	3.150	1229075.195	-0.923	10.768	-3.196	1230037.109	3.866	6.416	3.179	1228769.531	-2.638	4.034	5.396	1229959.961	1.313	8.408	-5.201	1229375.000	-1.187	10.901	7.778	0.000	0.000
1228829.102	-2.797	8.818	4.349	1229094.727	-4.231	14.478	2.035	1230056.641	4.127	6.528	3.567	1228789.062	-3.643	2.334	4.948	1229979.492	-0.012	12.535	-3.286	1229394.531	-3.176	9.254	4.469	0.000	0.000
1228848.633	-1.323	10.794	3.713	1229114.258	-1.385	10.576	2.665	1230076.172	4.146	5.530	3.420	1228808.594	-0.612	1.166	4.147	1229999.023	-3.929	10.998	-5.147	1229414.062	-2.798	7.695	2.867	0.000	0.000
1228868.164	-0.700	12.955	1.975	1229133.789	-0.769	10.774	3.885	1230095.703	4.082	4.902	3.185	1228828.125	4.794	2.418	2.491	1230018.555	-9.010	15.075	-1.505	1229433.594	-2.634	9.619	3.813	0.000	0.000
1228887.695	-0.733	13.685	2.732	1229153.320	-0.923	9.572	1.017	1230115.234	3.029	3.662	2.850	1228847.656	6.791	3.709	-1.624	1230038.086	-4.506	17.041	4.375	1229453.125	-1.182	11.419	6.737	0.000	0.000
1228907.227	-0.252	12.690	2.757	1229172.852	1.115	10.752	1.267	1230134.766	3.073	3.148	2.467	1228867.187	4.227	7.429	-4.247	1230057.617	-16.381	19.228	6.548	1229472.656	0.799	12.103	8.017	0.000	0.000
1228926.758	0.018	11.269	1.763	1229192.383	2.923	13.779	1.776	1230154.297	2.963	2.781	1.905	1228886.719	2.048	12.370	-6.719	1230077.148	-21.265	12.049	1.243	1229492.187	0.556	11.069	6.440	0.000	0.000
1228946.289	-0.149	9.883	1.096	1229211.914	0.308	14.883	2.158	1230173.828	3.441	2.940	1.791	1228906.250	4.986	8.994	-12.960	1230096.680	-20.801	7.295	-2.200	1229511.719	0.466	10.477	4.435	0.000	0.000
1228965.820	-0.909	8.952	1.097	1229231.445	-2.077	12.080	1.579	1230193.359	3.963	2.729	1.727	1228925.781	9.530	6.242	-8.587	1230116.211	-21.250	3.852	-9.633	1229531.250	0.441	9.477	4.095	0.000	0.000
1228985.352	-0.717	8.454	0.310	1229250.977	-4.038	9.623	2.189	1230212.891	4.217	3.174	2.099	1228945.312	4.611	6.730	-4.288	1230135.742	-9.362	16.839	0.258	1229550.781	-0.882	9.638	5.503	0.000	0.000
1229004.883	-0.151	8.191	0.851	1229270.508	-2.231	11.038	-0.046	1230232.422	5.158	4.231	2.039	1228964.844	3.322	8.106	-2.437	1230155.273	-4.179	15.906	4.112	1229570.312	-1.137	9.085	4.575	0.000	0.000
1229024.414	-0.433	7.380	0.653	1229290.039	-2.577	11.843	0.434	1230251.953	6.607	5.489	1.329	1228984.375	5.429	8.115	-3.244	1230174.805	-9.597	2.332	-1.456	1229589.844	-0.119	8.149	3.760	0.000	0.000
1229043.945	-0.751	6.839	0.869	1229309.570	-1.654	10.478	0.190	1230271.484	7.222	7.839	0.866	1229003.906	0.588	0.602	1.113	1230194.336	21.430	22.715	18.302	1229609.375	0.506	7.513	3.382	0.000	0.000
1229063.477	-0.593	6.648	0.658	1229329.102	-1.923	7.624	0.264	1230291.016	6.113	10.466	2.649	1229023.437	3.146	16.837	-4.644	1230213.867	-46.082	10.834	7.765	1229628.906	1.010	6.657	3.909	0.000	0.000
1229083.008	-0.388	6.458	1.207	1229348.633	-1.538	6.433	0.561	1230310.547	4.029	13.667	4.338	1229042.969	-1.148	12.850	8.309	1230233.398	48.124	7.189	-0.819	1229648.437	0.511	6.587	3.856	0.000	0.000
1229102.539	-0.062	6.038	1.823	1229368.164	0.500	7.535	-0.810	1230330.078	4.334	17.550	5.565	1229062.500	0.290	11.088	2.088	1230252.930	-10.498	13.584	13.497	1229667.969	0.439	6.551	3.390	0.000	0.000
1229122.070	-0.187	5.344	1.269	1229387.695	-0.462	6.827	-0.617	1230349.609	5.256	17.499	5.043	1229082.031	2.713	15.336	2.036	1230272.461	7.806	10.457	-0.989	1229687.500	0.716	6.104	3.057	0.000	0.000
1229141.602	0.137	5.232	1.740	1229407.227	0.115	6.065	-1.397	1230369.141	3.520	15.935	2.391	1229101.562	1.003	17.370	0.350	1230291.992	4.085	23.668	10.341	1229707.031	1.024	5.434	3.747	0.000	0.000
1229161.133	0.175	5.271	1.502	1229426.758	-0.615	5.993	-1.494	1230388.672	1.642	17.413	2.725	1229121.094	21.787	24.697	-9.787	1230311.523	9.153	3.511	-5.035	1229726.562	1.068	4.767	3.817	0.000	0.000
1229180.664	0.129	5.617	0.880	1229446.289	-1.885	5.904	-0.758	1230408.203	0.316	19.812	4.573	1229140.625	-0.289	10.538	-1.983	1230331.055	2.932	10.363	-0.600	1229746.094	1.801	4.871	3.454	0.000	0.000
1229200.195	0.202	5.617	0.159	1229465.820	-2.615	4.945	-0.964	1230427.734	4.095	25.877	5.653	1229160.156	-4.689	9.712	8.044	1230350.586	2.677	9.370	1.497	1229765.625	1.466	4.948	2.337	0.000	0.000
1229219.727	0.202	5.694	0.243	1229485.352	-2.615	3.678	-0.566	1230447.266	7.833	31.726	13.410	1229179.687	4.189	9.706	11.198	1230370.117	2.585	9.180	2.333	1229785.156	0.668	4.734	1.499	0.000	0.000
1229239.258	-0.392	6.304	0.759	1229504.883	-2.385	2.701	-1.716	1230466.797	-0.986	26.619	13.921	1229199.219	-2.176	11.402	9.338	1230389.648	1.365	9.424	2.629	1229804.687	-1.176	4.975	1.055	0.000	0.000
1229258.789	-1.155	7.258	0.534	1229524.414	-1.308	2.944	-2.752	1230486.328	-1.944	19.950	4.782	1229218.750	-1.093	10.992	6.083	1230409.180	1.774	8.732	2.391	1229824.219	-2.222	5.319	1.482	0.000	0.000
1229278.320	-1.832	8.828	0.820	1229543.945	-1.192	5.707	-0.144	1230505.859	2.158	19.750	7.109	1229238.281	0.046	10.053	0.719	1230428.711	2.691	8.818	2.156	1229843.750	-1.747	6.017	3.348	0.000	0.000
1229297.852	-1.794	9.905	0.593	1229563.477	-1.962	7.615	2.570	1230525.391	-2.772	15.917	2.747	1229257.812	4.977	9.194	-2.333	1230448.242	2.222	9.962	1.499	1229863.281	-1.405	7.533	5.999	0.000	0.000
1229317.383	-0.679	9.878	0.061	1229583.008	-1.577	9.400	2.220	1230544.922	-3.810	12.884	0.286	1229277.344	9.191	7.358	-3.943	1230467.773	3.576	9.497	1.919	1229882.812	-0.561	9.450	4.304	0.000	0.000
1229336.914	0.409	10.004	0.936	1229602.539	2.346	10.556	-0.032	1230564.453	-1.001	8.188	1.439	1229296.875	8.048	6.389	-2.886	1230487.305	2.856	8.940	1.200	1229902.344	1.259	8.839	3.721	0.000	0.000
1229356.445	0.638	12.814	3.794	1229622.070	2.269	9.942	-2.659	1230583.984	0.827	6.322	2.772	1229316.406	7.740	5.572	-2.896	1230506.836	3.137	9.523	1.386	1229921.875	2.938	6.822	3.190	0.000	0.000
1229375.977	0.889	12.124	0.877	1229641.602	-1.000	7.120	-2.297	1230603.516	-0.383	5.742	2.794	1229335.937	8.321	5.011	-2.545	1230526.367	2.182	9.061	1.753	1229941.406	0.430	8.292	2.551	0.000	0.000
1229395.508	1.302	12.398	2.167	1229661.133	-4.538	6.340	-2.161	1230623.047	-0.475	4.850	2.964	1229355.469	8.373	3.673	-1.126	1230545.898	2.182	9.663	1.558	1229960.937	-3.146	12.476	9.810	0.000	0.000
1229415.039	1.059	14.011	1.930	1229680.664	-6.000	8.727	-3.037	1230642.578	-0.468	4.371	2.700	1229375.000	7.172	3.838	-2.077	1230565.430	3.172	9.501	2.577	1229980.469	-2.534	11.433	7.327	0.000	0.000
1229434.570	0.415	17.543	1.473	1229700.195	-3.308	9.863	12.415	1230662.109	-0.496	3.818	2.431	1229394.531	5.964	7.169	-3.647	1230584.961	4.204	9.626	2.305	1230000.000	-3.190	11.662	7.368	0.000	0.000
1229454.102	1.165	22.512	4.514	1229719.727	-1.731	18.390	0.860	1230681.641	-0.641	3.629	2.459	1229414.062	4.393	9.505	-3.007	1230604.492	4.258	8.674	0.593	1230019.531	-4.878	13.197	5.365	0.000	0.000
1229473.633	2.339	16.023	1.858	1229739.258	2.808	12.725	0.805	1230701.172	-0.748	3.151	1.889	1229433.594	0.939	7.485	-2.282	1230624.023	3.009	9.696	0.898	1230039.062	-6.968	17.884	9.651	0.000	0.000
1229493.164	0.291	12.888	1.081	1229758.789	2.423	12.386	4.770	1230720.703	-0.931	2.928	1.647	1229453.125	-0.339	4.976	0.683	1230643.555	2.094	9.606	1.209	1230058.594	-9.743	18.579	9.529	0.000	0.000
1229512.695	-0.825	12.146	1.496	1229778.320	0.231	14.731	4.183	1230740.234	-0.700	2.234	1.093	1229472.656	-0.211	4.161	1.980	1230663.086	1.068	9.359	1.705	1230078.125	0.643	12.438	7.884	0.000	0.000
1229532.227	0.353	10.850	-0.701	1229797.852	0.462	24.246	6.218	1230759.766	-0.467	1.393	0.491	1229492.187	3.450	6.662	-1.177	1230682.617	3.480	10.320	1.007	1230097.656	2.998	12.674	2.909	0.000	0.000
1229551.758	1.317	10.013	-0.273	1229817.383	1.038	19.727	4.407	1230779.297	-0.381	0.839	0.566	1229511.719	4.990	11.527	-4.808	1230702.148	5.313	11.999	0.013	1230117.187	1.269	11.802	3.621	0.000	0.000
1229571.289	0.390	8.658	-1.011	1229836.914	-2.154	2.754	-4.361	1230798.828	-0.045	0.588	0.350	1229531.250	3.822	11.966	-6.244	1230721.680	8.072	17.641	4.209	1230136.719	0.930	10.472	4.175	0.000	0.000
1229590.820	-0.254	6.921	-1.371	1229856.445	-2.462	17.239	-0.862	1230818.359	0.540	0.752	-0.035	1229550.781	9.553	15.392	-6.192	1230741.211	10.510	18.283	3.223	1230156.250	-0.409	9.708	4.287	0.000	0.000
1229610.352	-0.077	6.576	0.290	1229875.977	-3.154	7.927	-1.929	1230837.891	1.673	1.370	-0.322	1229570.312	12.720	20.052	-4.912	1230760.742	12.076	15.609	1.162	1230175.781	-2.736	8.250	3.792	0.000	0.000
1229629.883	-0.113	4.653	0.714	1229895.508	-5.538	8.613	0.847	1230857.422	3.295	2.680	1.506	1229589.844	10.489	21.286	-1.107	1230780.273	14.467	13.036	2.253	1230195.312	-3.409	6.330	3.836	0.000	0.000
1229649.414	-0.464	3.034	1.636	1229915.039	-0.962	8.136	2.478	1230876.953	5.234	3.795	5.084	1229609.375	5.210	19.366	5.585	1230799.805	8.900	9.222	0.003	1230214.844	-3.669	5.481	3.772	0.000	0.000
1229668.945	-0.699	3.339	2.134	1229934.570	-0.500	5.700	2.023	1230896.484	5.897	4.646	6.438	1229628.906	2.186	14.990	10.938	1230819.336	8.339	14.334	10.354	1230234.375	-3.210	5.365	4.081	0.000	0.000
1229688.477	-0.774	3.992	2.567	1229954.102	-0.115	8.212	2.347	1230916.016	7.169	5.676	9.715	1229648.437	3.063	13.170	10.175	1230838.867	0.738	5.376	3.584	1230253.906	-1.352	4.199	4.113	0.000	0.000
1229708.008	-0.382	4.650	1.836	1229973.633	1.346	9.078	1.676	1230935.547	7.658	8.002	11.407	1229667.969	5.426	10.705	7.950	1230858.398	1.036	-13.024	-4.715	1230273.437	-0.029	3.185	3.530	0.000	0.000
1229727.539	0.380	6.350	2.034	1229993.164	-0.692	7.060	0.705	1230955.078	6.740	14.403	10.181	1229687.500	3.083	9.083	4.430	1230877.930	10.078	-6.782	2.300	1230292.969	0.979	3.101	2.891	0.000	0.000
1229747.070	0.738	8.315	1.808	1230012.695	-1.038	7.136	0.627	1230974.609	5.801	16.721	6.170	1229707.031	-1.110	8.228	4.378	1230897.461	7.364	-4.587	2.113	1230312.500	0.140	3.702	1.493	0.000	0.000
1229766.602	1.208	8.320	0.764	1230032.227	-1.538	5.793	-0.760	1230994.141	8.033	17.336	4.668	1229726.562	-3.417	7.018	4.421	1230916.992	3.835	-2.824	3.138	1230332.031	-2.264	4.652	2.511	0.000	0.000
1229786.133	0.527	9.198	0.655	1230051.758	-2.538	4.064	-1.341	1231013.672	8.564	18.606	4.708	1229746.094	-1.693	4.203	3.791	1230936.523	4.151	-3.036	2.199	1230351.562	-1.061	6.788	3.146	0.000	0.000
1229805.664	1.332	9.744	1.194	1230071.289	-3.231	5.574	-0.926	1231033.203	13.189	19.427	5.865	1229765.625	-1.805	3.895	4.118	1230956.055	4.480	-1.114	2.273	1230371.094	0.662	7.660	3.088	0.000	0.000
1229825.195	1.608	8.939	0.751	1230090.820	-4.346	10.255	0.195	1231052.734	13.936	16.494	8.068	1229785.156	-2.372	3.378	5.126	1230975.586	4.011	4.203	4.097	1230390.625	1.115	7.433	4.120	0.000	0.000
1229844.727	1.638	9.439	-0.224	1230110.352	-2.769	7.615	0.746	1231072.266	11.484	13.548	8.873	1229804.687	-3.417	3.167	4.421	1230995.117	3.591	12.675	6.494	1230410.156	0.130	6.702	3.395	0.000	0.000
1229864.258	-0.253	13.113	2.658	1230129.883	-2.615	3.718	-0.716	1231091.797	11.226	7.915	8.753	1229824.219	-3.146	3.496	4.633	1231014.648	2.585	14.305	5.756	1230429.687	-2.436	6.321	2.701	0.000	0.000
1229883.789	0.337	13.350	1.664	1230149.414	-4.923	4.841	-1.327	1231111.328	7.571	3.909	5.699	1229843.750	-1.162	2.823	3.054	1231034.180	-4.699	7.010	1.275	1230449.219	-2.033	7.724	3.231	0.000	0.000
1229903.320	-1.331	13.641	2.895	1230168.945	-5.731	6.647	-0.891	1231130.859	4.869	2.657	3.281	1229863.281	0.447	3.304	2.352	1231053.711	-9.470	12.590	4.504	1230468.750	1.987	12.684	7.851	0.000	0.000
1229922.852	-1.222	12.295	1.827	1230188.477	-5.269	10.242	0.868	1231150.391	3.397	3.599	2.453	1229882.812	2.108	6.081	-0.751	1231073.242	-7.994	19.376	6.550	1230488.281	-0.492	13.709	8.565	0.000	0.000
1229942.383	-0.564	13.610	-0.434	1230208.008	-1.000	8.291	0.259	1231169.922	2.414	4.652	2.585	1229902.344	5.057	9.892	-5.830	1231092.773	-12.447	20.567	6.435	1230507.812	0.899	12.843	8.763	0.000	0.000
1229961.914	-2.021	20.134	1.947	1230227.539	0.154	11.411	1.685	1231189.453	1.744	5.006	2.931	1229921.875	8.029	15.785	-8.668	1231112.305	-23.102	15.888	6.684	1230527.344	-1.124	11.159	5.105	0.000	0.000
1229981.445	-1.640	17.330	3.963	1230247.070	-2.192	13.440	2.070	1231208.984	2.697	4.998	1.873	1229941.406	9.049	16.817	-14.337	1231131.836	-48.234	13.728	1.729	1230546.875	-1.836	13.759	4.465	0.000	0.000
1230000.977	0.136	12.232	-2.390	1230266.602	0.346	15.236	1.187	1231228.516	3.073	4.491	1.484	1229960.937	5.838	6.729	-16.173	1231151.367	-44.371	-7.278	-4.801	1230566.406	3.038	21.673	9.155	0.000	0.000
1230020.508	-0.466	13.188	1.424	1230286.133	1.692	15.359	0.570	1231248.047	4.086	5.261	0.556	1229980.469	0.943	8.145	-5.742	1231170.898	-12.644	19.687	4.038	1230585.937	0.902	13.769	7.520	0.000	0.000
1230040.039	-0.924	11.145	-0.434	1230305.664	0.346	12.863	-2.387	1231267.578	4.712	6.366	-1.226	1230000.000	0.592	-0.073	-2.312	1231190.430	64.012	37.274	31.558	1230605.469	-3.739	11.186	5.016	0.000	0.000
1230059.570	-0.524	9.418	-0.404	1230325.195	-1.154	16.285	-1.297	1231287.109	5.168	7.453	-1.582	1230019.531	13.039	3.092	0.032	1231209.961	-78.606	-26.576	-1.078	1230625.000	-2.761	11.954	2.628	0.000	0.000
1230079.102	-0.402	7.650	-0.173	1230344.727	-9.192	19.066	0.380	1231306.641	4.772	8.851	-1.437	1230039.062	1.289	22.641	17.320	1231229.492	77.780	8.977	20.453	1230644.531	-1.950	10.649	3.591	0.000	0.000
1230098.633	-0.243	6.498	-0.273	1230364.258	-6.077	15.216	0.326	1231326.172	5.616	11.525	-0.536	1230058.594	-1.631	15.701	-5.404	1231249.023	-26.341	10.896	-0.891	1230664.062	-1.367	9.310	4.317	0.000	0.000
1230118.164	-0.563	5.648	-0.272	1230383.789	1.115	12.012	-0.594	1231345.703	6.733	16.044	1.681	1230078.125	-3.630	15.525	-1.415	1231268.555	8.042	2.240	-7.023	1230683.594	-0.197	8.632	3.331	0.000	0.000
1230137.695	-0.320	4.651	-0.004	1230403.320	0.923	8.877	-1.271	1231365.234	4.739	24.024	7.125	1230097.656	-0.845	14.095	3.961	1231288.086	4.730	22.701	5.238	1230703.125	0.445	6.921	2.416	0.000	0.000
1230157.227	0.044	4.039	0.402	1230422.852	-1.154	7.835	-1.012	1231384.766	-1.500	26.786	10.944	1230117.187	14.160	16.827	0.625	1231307.617	9.637	6.980	-0.331	1230722.656	1.260	5.617	3.034	0.000	0.000
1230176.758	0.371	3.888	1.111	1230442.383	-2.000	5.835	-0.996	1231404.297	-4.326	22.057	11.554	1230136.719	9.359	15.537	1.278	1231327.148	2.625	10.662	-0.656	1230742.187	1.768	4.464	3.309	0.000	0.000
1230196.289	-0.183	4.498	1.747	1230461.914	-2.385	4.424	-0.809	1231423.828	-5.916	20.572	12.481	1230156.250	-1.412	10.095	4.990	1231346.680	3.543	9.364	0.873	1230761.719	1.538	4.503	3.192	0.000	0.000
1230215.820	0.134	4.501	1.384	1230481.445	-2.308	2.935	-0.465	1231443.359	-5.588	20.837	12.532	1230175.781	-1.302	10.262	4.423	1231366.211	1.735	9.326	0.888	1230781.250	1.387	4.245	3.171	0.000	0.000
1230235.352	-0.708	5.531	1.164	1230500.977	-2.269	2.348	-0.742	1231462.891	-5.266	17.913	9.244	1230195.312	0.353	10.275	4.540	1231385.742	3.370	9.368	1.528	1230800.781	1.467	4.393	2.721	0.000	0.000
1230254.883	-0.989	6.298	1.125	1230520.508	-2.231	2.916	-1.350	1231482.422	-3.557	14.092	5.865	1230214.844	0.910	10.267	2.501	1231405.273	2.374	9.739	1.522	1230820.312	0.451	4.033	0.907	0.000	0.000
1230274.414	-1.345	7.410	1.464	1230540.039	-2.731	2.966	-2.010	1231501.953	1.335	11.789	5.222	1230234.375	2.197	7.861	0.433	1231424.805	2.370	9.595	1.437	1230839.844	-0.659	4.155	0.162	0.000	0.000
1230293.945	-2.314	8.631	0.615	1230559.570	-2.192	4.078	-2.064	1231521.484	5.979	9.361	5.497	1230253.906	5.110	6.624	-0.564	1231444.336	1.916	8.602	2.035	1230859.375	-2.446	5.136	1.003	0.000	0.000
1230313.477	-2.716	9.127	0.443	1230579.102	-2.615	5.571	-0.760	1231541.016	6.669	8.008	5.158	1230273.437	5.031	5.998	-0.717	1231463.867	1.253	8.504	1.767	1230878.906	-3.517	5.924	3.498	0.000	0.000
1230333.008	-1.563	8.984	-0.255	1230598.633	-1.962	6.500	0.942	1231560.547	6.120	7.482	4.786	1230292.969	3.179	5.776	-1.346	1231483.398	1.212	8.358	1.720	1230898.437	-4.486	8.230	5.717	0.000	0.000
1230352.539	-0.018	12.423	2.181	1230618.164	-1.462	9.790	4.946	1231580.078	4.419	7.301	4.615	1230312.500	2.834	7.175	-1.185	1231502.930	3.221	11.771	0.866	1230917.969	-2.792	8.361	5.491	0.000	0.000
1230372.070	1.261	15.513	2.083	1230637.695	4.077	11.176	4.168	1231599.609	3.683	6.846	4.213	1230332.031	3.848	9.074	-3.648	1231522.461	3.029	8.200	-1.769	1230937.500	-0.113	7.409	3.939	0.000	0.000
1230391.602	1.349	17.283	2.851	1230657.227	4.346	13.091	-4.558	1231619.141	2.579	6.091	3.452	1230351.562	5.856	11.111	-6.680	1231541.992	3.895	9.580	0.997	1230957.031	-3.994	11.633	7.004	0.000	0.000
1230411.133	0.670	17.276	3.017	1230676.758	2.231	13.189	1.638	1231638.672	1.185	5.470	3.475	1230371.094	4.845	9.506	-7.853	1231561.523	3.619	8.913	0.999	1230976.562	-2.264	14.282	8.224	0.000	0.000
1230430.664	0.569	16.506	0.940	1230696.289	0.462	2.503	2.633	1231658.203	-0.078	5.667	3.514	1230390.625	1.754	5.698	-5.389	1231581.055	2.573	9.151	0.677	1230996.094	-3.479	14.627	10.147	0.000	0.000
1230450.195	-0.507	18.995	1.275	1230715.820	-7.808	15.261	-1.935	1231677.734	-1.780	5.269	2.866	1230410.156	3.776	3.684	0.683	1231600.586	3.795	10.006	1.370	1231015.625	-3.520	13.776	7.471	0.000	0.000
1230469.727	-0.534	17.418	2.556	1230735.352	-6.462	24.828	10.434	1231697.266	-1.951	4.344	2.458	1230429.687	4.905	2.725	5.856	1231620.117	2.829	10.777	2.234	1231035.156	-1.437	14.348	6.322	0.000	0.000
1230489.258	-0.637	12.609	0.277	1230754.883	1.615	10.812	1.974	1231716.797	-1.932	3.345	2.427	1230449.219	4.293	2.598	6.194	1231639.648	1.501	9.606	1.946	1231054.687	-3.368	16.997	8.315	0.000	0.000
1230508.789	-1.353	10.525	0.700	1230774.414	0.731	15.081	1.529	1231736.328	-1.659	2.139	1.337	1230468.750	5.660	5.183	4.426	1231659.180	2.115	10.222	2.977	1231074.219	-2.568	14.396	7.764	0.000	0.000
1230528.320	-1.482	9.254	-0.162	1230793.945	-1.077	15.976	1.218	1231755.859	-1.465	1.916	1.740	1230488.281	5.815	9.110	0.739	1231678.711	3.448	10.449	-0.100	1231093.750	0.137	12.258	4.861	0.000	0.000
1230547.852	-1.041	7.567	-0.131	1230813.477	-1.462	22.662	3.938	1231775.391	-0.765	2.006	1.617	1230507.812	3.933	9.126	-2.876	1231698.242	7.871	16.297	-0.755	1231113.281	0.782	10.659	3.454	0.000	0.000
